"view_history","rt","trial_type","trial_index","time_elapsed","internal_node_id","response","present","setSize","conjuction","task","correct","stimulus"
"[{""page_index"":0,""viewing_time"":3475},{""page_index"":1,""viewing_time"":52838}]","56313","instructions","0","56317","0.0-0.0","","","","","","",""
"","4816","canvas-keyboard-response","1","61651","0.0-1.0-0.0","f","true","10","false","response","true",""
"","null","html-keyboard-response","2","63178","0.0-1.0-1.0","null","","","","","","Correct!<br><br><b>Work faster!</b>"
"","9526","canvas-keyboard-response","3","73218","0.0-1.0-0.1","j","false","40","true","response","true",""
"","null","html-keyboard-response","4","74738","0.0-1.0-1.1","null","","","","","","Correct!<br><br><b>Work faster!</b>"
"","2097","canvas-keyboard-response","5","77337","0.0-1.0-0.2","j","false","10","true","response","true",""
"","null","html-keyboard-response","6","78849","0.0-1.0-1.2","null","","","","","","Correct!<br><br><b>Work faster!</b>"
"","2435","canvas-keyboard-response","7","81788","0.0-1.0-0.3","j","false","40","false","response","true",""
"","null","html-keyboard-response","8","83301","0.0-1.0-1.3","null","","","","","","Correct!<br><br><b>Work faster!</b>"
"","1212","canvas-keyboard-response","9","85018","0.0-1.0-0.4","f","true","20","true","response","true",""
"","null","html-keyboard-response","10","86546","0.0-1.0-1.4","null","","","","","","Correct!"
"","753","canvas-keyboard-response","11","87808","0.0-1.0-0.5","f","true","30","false","response","true",""
"","null","html-keyboard-response","12","89323","0.0-1.0-1.5","null","","","","","","Correct!"
"","1394","canvas-keyboard-response","13","91220","0.0-1.0-0.6","j","true","20","true","response","false",""
"","null","html-keyboard-response","14","92724","0.0-1.0-1.6","null","","","","","","Wrong"
"","4573","canvas-keyboard-response","15","97808","0.0-1.0-0.7","j","false","30","false","response","true",""
"","null","html-keyboard-response","16","99320","0.0-1.0-1.7","null","","","","","","Correct!<br><br><b>Work faster!</b>"
"","3689","canvas-keyboard-response","17","103522","0.0-1.0-0.8","j","false","20","true","response","true",""
"","null","html-keyboard-response","18","105036","0.0-1.0-1.8","null","","","","","","Correct!<br><br><b>Work faster!</b>"
"","2768","canvas-keyboard-response","19","108307","0.0-1.0-0.9","j","false","30","true","response","true",""
"","null","html-keyboard-response","20","109814","0.0-1.0-1.9","null","","","","","","Correct!<br><br><b>Work faster!</b>"
"","1513","canvas-keyboard-response","21","111838","0.0-1.0-0.10","j","false","30","true","response","true",""
"","null","html-keyboard-response","22","113345","0.0-1.0-1.10","null","","","","","","Correct!"
"","809","canvas-keyboard-response","23","114660","0.0-1.0-0.11","f","true","10","true","response","true",""
"","null","html-keyboard-response","24","116177","0.0-1.0-1.11","null","","","","","","Correct!"
"","739","canvas-keyboard-response","25","117428","0.0-1.0-0.12","f","true","20","false","response","true",""
"","null","html-keyboard-response","26","118958","0.0-1.0-1.12","null","","","","","","Correct!"
"","668","canvas-keyboard-response","27","120132","0.0-1.0-0.13","f","true","40","true","response","true",""
"","null","html-keyboard-response","28","121653","0.0-1.0-1.13","null","","","","","","Correct!"
"","923","canvas-keyboard-response","29","123086","0.0-1.0-0.14","j","false","10","true","response","true",""
"","null","html-keyboard-response","30","124598","0.0-1.0-1.14","null","","","","","","Correct!"
"","2303","canvas-keyboard-response","31","127405","0.0-1.0-0.15","j","false","30","true","response","true",""
"","null","html-keyboard-response","32","128911","0.0-1.0-1.15","null","","","","","","Correct!<br><br><b>Work faster!</b>"
"","1817","canvas-keyboard-response","33","131230","0.0-1.0-0.16","f","true","30","true","response","true",""
"","null","html-keyboard-response","34","132740","0.0-1.0-1.16","null","","","","","","Correct!"
"","1232","canvas-keyboard-response","35","134481","0.0-1.0-0.17","f","true","20","true","response","true",""
"","null","html-keyboard-response","36","135988","0.0-1.0-1.17","null","","","","","","Correct!"
"","2640","canvas-keyboard-response","37","139145","0.0-1.0-0.18","j","false","40","true","response","true",""
"","null","html-keyboard-response","38","140664","0.0-1.0-1.18","null","","","","","","Correct!<br><br><b>Work faster!</b>"
"","1650","canvas-keyboard-response","39","142818","0.0-1.0-0.19","j","false","40","true","response","true",""
"","null","html-keyboard-response","40","144334","0.0-1.0-1.19","null","","","","","","Correct!"
"","2041","canvas-keyboard-response","41","146877","0.0-1.0-0.20","j","false","40","false","response","true",""
"","null","html-keyboard-response","42","148393","0.0-1.0-1.20","null","","","","","","Correct!<br><br><b>Work faster!</b>"
"","1003","canvas-keyboard-response","43","149902","0.0-1.0-0.21","f","true","10","true","response","true",""
"","null","html-keyboard-response","44","151423","0.0-1.0-1.21","null","","","","","","Correct!"
"","898","canvas-keyboard-response","45","152829","0.0-1.0-0.22","j","false","30","false","response","true",""
"","null","html-keyboard-response","46","154346","0.0-1.0-1.22","null","","","","","","Correct!"
"","910","canvas-keyboard-response","47","155761","0.0-1.0-0.23","f","true","20","true","response","true",""
"","null","html-keyboard-response","48","157276","0.0-1.0-1.23","null","","","","","","Correct!"
"","940","canvas-keyboard-response","49","158718","0.0-1.0-0.24","j","false","10","false","response","true",""
"","null","html-keyboard-response","50","160233","0.0-1.0-1.24","null","","","","","","Correct!"
"","1327","canvas-keyboard-response","51","162062","0.0-1.0-0.25","j","true","20","true","response","false",""
"","null","html-keyboard-response","52","163583","0.0-1.0-1.25","null","","","","","","Wrong"
"","735","canvas-keyboard-response","53","164820","0.0-1.0-0.26","j","false","10","true","response","true",""
"","null","html-keyboard-response","54","166329","0.0-1.0-1.26","null","","","","","","Correct!"
"","723","canvas-keyboard-response","55","167553","0.0-1.0-0.27","f","true","40","false","response","true",""
"","null","html-keyboard-response","56","169070","0.0-1.0-1.27","null","","","","","","Correct!"
"","2227","canvas-keyboard-response","57","171800","0.0-1.0-0.28","j","false","40","true","response","true",""
"","null","html-keyboard-response","58","173314","0.0-1.0-1.28","null","","","","","","Correct!<br><br><b>Work faster!</b>"
"","680","canvas-keyboard-response","59","174515","0.0-1.0-0.29","j","false","20","true","response","true",""
"","null","html-keyboard-response","60","176033","0.0-1.0-1.29","null","","","","","","Correct!"
"","641","canvas-keyboard-response","61","177182","0.0-1.0-0.30","f","true","30","false","response","true",""
"","null","html-keyboard-response","62","178703","0.0-1.0-1.30","null","","","","","","Correct!"
"","1450","canvas-keyboard-response","63","180660","0.0-1.0-0.31","j","false","40","true","response","true",""
"","null","html-keyboard-response","64","182162","0.0-1.0-1.31","null","","","","","","Correct!"
"","919","canvas-keyboard-response","65","183583","0.0-1.0-0.32","j","false","40","false","response","true",""
"","null","html-keyboard-response","66","185099","0.0-1.0-1.32","null","","","","","","Correct!"
"","638","canvas-keyboard-response","67","186242","0.0-1.0-0.33","j","false","40","true","response","true",""
"","null","html-keyboard-response","68","187749","0.0-1.0-1.33","null","","","","","","Correct!"
"","903","canvas-keyboard-response","69","189167","0.0-1.0-0.34","j","false","20","true","response","true",""
"","null","html-keyboard-response","70","190703","0.0-1.0-1.34","null","","","","","","Correct!"
"","717","canvas-keyboard-response","71","191931","0.0-1.0-0.35","f","true","30","false","response","true",""
"","null","html-keyboard-response","72","193446","0.0-1.0-1.35","null","","","","","","Correct!"
"","1074","canvas-keyboard-response","73","195022","0.0-1.0-0.36","j","false","40","true","response","true",""
"","null","html-keyboard-response","74","196559","0.0-1.0-1.36","null","","","","","","Correct!"
"","844","canvas-keyboard-response","75","197905","0.0-1.0-0.37","j","false","10","false","response","true",""
"","null","html-keyboard-response","76","199414","0.0-1.0-1.37","null","","","","","","Correct!"
"","1571","canvas-keyboard-response","77","201487","0.0-1.0-0.38","j","false","30","true","response","true",""
"","null","html-keyboard-response","78","203004","0.0-1.0-1.38","null","","","","","","Correct!"
"","635","canvas-keyboard-response","79","204142","0.0-1.0-0.39","j","false","10","false","response","true",""
"","null","html-keyboard-response","80","205658","0.0-1.0-1.39","null","","","","","","Correct!"
"","731","canvas-keyboard-response","81","206893","0.0-1.0-0.40","j","false","30","false","response","true",""
"","null","html-keyboard-response","82","208416","0.0-1.0-1.40","null","","","","","","Correct!"
"","576","canvas-keyboard-response","83","209508","0.0-1.0-0.41","f","true","20","false","response","true",""
"","null","html-keyboard-response","84","211028","0.0-1.0-1.41","null","","","","","","Correct!"
"","829","canvas-keyboard-response","85","212363","0.0-1.0-0.42","j","true","10","true","response","false",""
"","null","html-keyboard-response","86","213878","0.0-1.0-1.42","null","","","","","","Wrong"
"","1061","canvas-keyboard-response","87","215442","0.0-1.0-0.43","j","false","20","false","response","true",""
"","null","html-keyboard-response","88","216944","0.0-1.0-1.43","null","","","","","","Correct!"
"","1276","canvas-keyboard-response","89","218721","0.0-1.0-0.44","j","false","40","false","response","true",""
"","null","html-keyboard-response","90","220242","0.0-1.0-1.44","null","","","","","","Correct!"
"","727","canvas-keyboard-response","91","221480","0.0-1.0-0.45","j","false","10","false","response","true",""
"","null","html-keyboard-response","92","223002","0.0-1.0-1.45","null","","","","","","Correct!"
"","1392","canvas-keyboard-response","93","224906","0.0-1.0-0.46","f","true","30","true","response","true",""
"","null","html-keyboard-response","94","226420","0.0-1.0-1.46","null","","","","","","Correct!"
"","921","canvas-keyboard-response","95","227851","0.0-1.0-0.47","j","false","30","false","response","true",""
"","null","html-keyboard-response","96","229362","0.0-1.0-1.47","null","","","","","","Correct!"
"","1255","canvas-keyboard-response","97","231122","0.0-1.0-0.48","f","true","10","true","response","true",""
"","null","html-keyboard-response","98","232635","0.0-1.0-1.48","null","","","","","","Correct!"
"","771","canvas-keyboard-response","99","233915","0.0-1.0-0.49","f","true","30","false","response","true",""
"","null","html-keyboard-response","100","235440","0.0-1.0-1.49","null","","","","","","Correct!"
"","856","canvas-keyboard-response","101","236799","0.0-1.0-0.50","j","false","10","true","response","true",""
"","null","html-keyboard-response","102","238306","0.0-1.0-1.50","null","","","","","","Correct!"
"","808","canvas-keyboard-response","103","239616","0.0-1.0-0.51","j","false","10","false","response","true",""
"","null","html-keyboard-response","104","241143","0.0-1.0-1.51","null","","","","","","Correct!"
"","756","canvas-keyboard-response","105","242402","0.0-1.0-0.52","j","false","30","false","response","true",""
"","null","html-keyboard-response","106","243914","0.0-1.0-1.52","null","","","","","","Correct!"
"","1187","canvas-keyboard-response","107","245603","0.0-1.0-0.53","j","false","10","true","response","true",""
"","null","html-keyboard-response","108","247111","0.0-1.0-1.53","null","","","","","","Correct!"
"","729","canvas-keyboard-response","109","248342","0.0-1.0-0.54","f","true","10","true","response","true",""
"","null","html-keyboard-response","110","249847","0.0-1.0-1.54","null","","","","","","Correct!"
"","722","canvas-keyboard-response","111","251075","0.0-1.0-0.55","j","false","30","false","response","true",""
"","null","html-keyboard-response","112","252602","0.0-1.0-1.55","null","","","","","","Correct!"
"","666","canvas-keyboard-response","113","253782","0.0-1.0-0.56","j","false","20","false","response","true",""
"","null","html-keyboard-response","114","255303","0.0-1.0-1.56","null","","","","","","Correct!"
"","607","canvas-keyboard-response","115","256422","0.0-1.0-0.57","f","true","20","false","response","true",""
"","null","html-keyboard-response","116","257943","0.0-1.0-1.57","null","","","","","","Correct!"
"","1332","canvas-keyboard-response","117","259778","0.0-1.0-0.58","f","true","30","true","response","true",""
"","null","html-keyboard-response","118","261284","0.0-1.0-1.58","null","","","","","","Correct!"
"","931","canvas-keyboard-response","119","262730","0.0-1.0-0.59","f","true","10","true","response","true",""
"","null","html-keyboard-response","120","264252","0.0-1.0-1.59","null","","","","","","Correct!"
"","688","canvas-keyboard-response","121","265453","0.0-1.0-0.60","f","true","20","false","response","true",""
"","null","html-keyboard-response","122","266960","0.0-1.0-1.60","null","","","","","","Correct!"
"","700","canvas-keyboard-response","123","268162","0.0-1.0-0.61","j","false","30","false","response","true",""
"","null","html-keyboard-response","124","269686","0.0-1.0-1.61","null","","","","","","Correct!"
"","678","canvas-keyboard-response","125","270882","0.0-1.0-0.62","f","true","40","false","response","true",""
"","null","html-keyboard-response","126","272413","0.0-1.0-1.62","null","","","","","","Correct!"
"","750","canvas-keyboard-response","127","273665","0.0-1.0-0.63","j","false","20","false","response","true",""
"","null","html-keyboard-response","128","275198","0.0-1.0-1.63","null","","","","","","Correct!"
"","591","canvas-keyboard-response","129","276302","0.0-1.0-0.64","f","true","10","true","response","true",""
"","null","html-keyboard-response","130","277823","0.0-1.0-1.64","null","","","","","","Correct!"
"","626","canvas-keyboard-response","131","278962","0.0-1.0-0.65","f","true","10","false","response","true",""
"","null","html-keyboard-response","132","280474","0.0-1.0-1.65","null","","","","","","Correct!"
"","1324","canvas-keyboard-response","133","282302","0.0-1.0-0.66","f","true","20","true","response","true",""
"","null","html-keyboard-response","134","283818","0.0-1.0-1.66","null","","","","","","Correct!"
"","786","canvas-keyboard-response","135","285124","0.0-1.0-0.67","j","false","30","false","response","true",""
"","null","html-keyboard-response","136","286633","0.0-1.0-1.67","null","","","","","","Correct!"
"","608","canvas-keyboard-response","137","287743","0.0-1.0-0.68","f","true","40","false","response","true",""
"","null","html-keyboard-response","138","289260","0.0-1.0-1.68","null","","","","","","Correct!"
"","1063","canvas-keyboard-response","139","290853","0.0-1.0-0.69","j","false","20","false","response","true",""
"","null","html-keyboard-response","140","292364","0.0-1.0-1.69","null","","","","","","Correct!"
"","669","canvas-keyboard-response","141","293543","0.0-1.0-0.70","f","true","30","false","response","true",""
"","null","html-keyboard-response","142","295055","0.0-1.0-1.70","null","","","","","","Correct!"
"","2523","canvas-keyboard-response","143","298092","0.0-1.0-0.71","j","false","40","true","response","true",""
"","null","html-keyboard-response","144","299609","0.0-1.0-1.71","null","","","","","","Correct!<br><br><b>Work faster!</b>"
"","908","canvas-keyboard-response","145","301039","0.0-1.0-0.72","f","true","20","true","response","true",""
"","null","html-keyboard-response","146","302558","0.0-1.0-1.72","null","","","","","","Correct!"
"","633","canvas-keyboard-response","147","303697","0.0-1.0-0.73","f","true","20","false","response","true",""
"","null","html-keyboard-response","148","305210","0.0-1.0-1.73","null","","","","","","Correct!"
"","601","canvas-keyboard-response","149","306326","0.0-1.0-0.74","f","true","20","false","response","true",""
"","null","html-keyboard-response","150","307829","0.0-1.0-1.74","null","","","","","","Correct!"
"","1143","canvas-keyboard-response","151","309477","0.0-1.0-0.75","j","false","10","true","response","true",""
"","null","html-keyboard-response","152","310995","0.0-1.0-1.75","null","","","","","","Correct!"
"","790","canvas-keyboard-response","153","312294","0.0-1.0-0.76","j","false","20","false","response","true",""
"","null","html-keyboard-response","154","313820","0.0-1.0-1.76","null","","","","","","Correct!"
"","698","canvas-keyboard-response","155","315033","0.0-1.0-0.77","j","false","10","true","response","true",""
"","null","html-keyboard-response","156","316539","0.0-1.0-1.77","null","","","","","","Correct!"
"","626","canvas-keyboard-response","157","317670","0.0-1.0-0.78","f","true","10","false","response","true",""
"","null","html-keyboard-response","158","319178","0.0-1.0-1.78","null","","","","","","Correct!"
"","1098","canvas-keyboard-response","159","320785","0.0-1.0-0.79","f","true","30","true","response","true",""
"","null","html-keyboard-response","160","322319","0.0-1.0-1.79","null","","","","","","Correct!"
"","542","canvas-keyboard-response","161","323372","0.0-1.0-0.80","f","true","30","false","response","true",""
"","null","html-keyboard-response","162","324882","0.0-1.0-1.80","null","","","","","","Correct!"
"","1742","canvas-keyboard-response","163","327141","0.0-1.0-0.81","j","false","30","true","response","true",""
"","null","html-keyboard-response","164","328652","0.0-1.0-1.81","null","","","","","","Correct!"
"","658","canvas-keyboard-response","165","329818","0.0-1.0-0.82","j","false","40","false","response","true",""
"","null","html-keyboard-response","166","331327","0.0-1.0-1.82","null","","","","","","Correct!"
"","750","canvas-keyboard-response","167","332591","0.0-1.0-0.83","j","false","30","false","response","true",""
"","null","html-keyboard-response","168","334109","0.0-1.0-1.83","null","","","","","","Correct!"
"","771","canvas-keyboard-response","169","335385","0.0-1.0-0.84","j","false","40","false","response","true",""
"","null","html-keyboard-response","170","336902","0.0-1.0-1.84","null","","","","","","Correct!"
"","676","canvas-keyboard-response","171","338088","0.0-1.0-0.85","j","false","10","false","response","true",""
"","null","html-keyboard-response","172","339603","0.0-1.0-1.85","null","","","","","","Correct!"
"","701","canvas-keyboard-response","173","340825","0.0-1.0-0.86","j","false","10","true","response","true",""
"","null","html-keyboard-response","174","342330","0.0-1.0-1.86","null","","","","","","Correct!"
"","764","canvas-keyboard-response","175","343597","0.0-1.0-0.87","j","false","20","true","response","true",""
"","null","html-keyboard-response","176","345101","0.0-1.0-1.87","null","","","","","","Correct!"
"","571","canvas-keyboard-response","177","346173","0.0-1.0-0.88","f","true","30","false","response","true",""
"","null","html-keyboard-response","178","347676","0.0-1.0-1.88","null","","","","","","Correct!"
"","569","canvas-keyboard-response","179","348761","0.0-1.0-0.89","j","false","30","false","response","true",""
"","null","html-keyboard-response","180","350269","0.0-1.0-1.89","null","","","","","","Correct!"
"","603","canvas-keyboard-response","181","351382","0.0-1.0-0.90","j","false","40","false","response","true",""
"","null","html-keyboard-response","182","352898","0.0-1.0-1.90","null","","","","","","Correct!"
"","1056","canvas-keyboard-response","183","354466","0.0-1.0-0.91","f","true","30","true","response","true",""
"","null","html-keyboard-response","184","355993","0.0-1.0-1.91","null","","","","","","Correct!"
"","650","canvas-keyboard-response","185","357156","0.0-1.0-0.92","j","false","10","false","response","true",""
"","null","html-keyboard-response","186","358673","0.0-1.0-1.92","null","","","","","","Correct!"
"","1152","canvas-keyboard-response","187","360328","0.0-1.0-0.93","f","true","40","true","response","true",""
"","null","html-keyboard-response","188","361845","0.0-1.0-1.93","null","","","","","","Correct!"
"","1114","canvas-keyboard-response","189","363463","0.0-1.0-0.94","j","false","30","true","response","true",""
"","null","html-keyboard-response","190","364972","0.0-1.0-1.94","null","","","","","","Correct!"
"","1308","canvas-keyboard-response","191","366782","0.0-1.0-0.95","j","false","20","true","response","true",""
"","null","html-keyboard-response","192","368285","0.0-1.0-1.95","null","","","","","","Correct!"
"","1195","canvas-keyboard-response","193","369996","0.0-1.0-0.96","j","false","30","true","response","true",""
"","null","html-keyboard-response","194","371513","0.0-1.0-1.96","null","","","","","","Correct!"
"","914","canvas-keyboard-response","195","372944","0.0-1.0-0.97","j","true","40","true","response","false",""
"","null","html-keyboard-response","196","374464","0.0-1.0-1.97","null","","","","","","Wrong"
"","741","canvas-keyboard-response","197","375717","0.0-1.0-0.98","f","true","40","false","response","true",""
"","null","html-keyboard-response","198","377225","0.0-1.0-1.98","null","","","","","","Correct!"
"","1390","canvas-keyboard-response","199","379119","0.0-1.0-0.99","f","true","20","true","response","true",""
"","null","html-keyboard-response","200","380633","0.0-1.0-1.99","null","","","","","","Correct!"
"","1291","canvas-keyboard-response","201","382427","0.0-1.0-0.100","j","false","40","true","response","true",""
"","null","html-keyboard-response","202","383944","0.0-1.0-1.100","null","","","","","","Correct!"
"","1053","canvas-keyboard-response","203","385508","0.0-1.0-0.101","j","false","30","true","response","true",""
"","null","html-keyboard-response","204","387023","0.0-1.0-1.101","null","","","","","","Correct!"
"","839","canvas-keyboard-response","205","388374","0.0-1.0-0.102","f","true","20","true","response","true",""
"","null","html-keyboard-response","206","389890","0.0-1.0-1.102","null","","","","","","Correct!"
"","1299","canvas-keyboard-response","207","391691","0.0-1.0-0.103","f","true","10","true","response","true",""
"","null","html-keyboard-response","208","393194","0.0-1.0-1.103","null","","","","","","Correct!"
"","766","canvas-keyboard-response","209","394479","0.0-1.0-0.104","j","false","30","false","response","true",""
"","null","html-keyboard-response","210","396004","0.0-1.0-1.104","null","","","","","","Correct!"
"","522","canvas-keyboard-response","211","397028","0.0-1.0-0.105","f","true","40","false","response","true",""
"","null","html-keyboard-response","212","398545","0.0-1.0-1.105","null","","","","","","Correct!"
"","700","canvas-keyboard-response","213","399757","0.0-1.0-0.106","f","true","20","false","response","true",""
"","null","html-keyboard-response","214","401281","0.0-1.0-1.106","null","","","","","","Correct!"
"","922","canvas-keyboard-response","215","402705","0.0-1.0-0.107","f","true","20","false","response","true",""
"","null","html-keyboard-response","216","404219","0.0-1.0-1.107","null","","","","","","Correct!"
"","883","canvas-keyboard-response","217","405607","0.0-1.0-0.108","f","true","30","true","response","true",""
"","null","html-keyboard-response","218","407128","0.0-1.0-1.108","null","","","","","","Correct!"
"","595","canvas-keyboard-response","219","408229","0.0-1.0-0.109","j","true","20","false","response","false",""
"","null","html-keyboard-response","220","409735","0.0-1.0-1.109","null","","","","","","Wrong"
"","614","canvas-keyboard-response","221","410857","0.0-1.0-0.110","f","true","10","false","response","true",""
"","null","html-keyboard-response","222","412361","0.0-1.0-1.110","null","","","","","","Correct!"
"","1246","canvas-keyboard-response","223","414121","0.0-1.0-0.111","j","false","20","true","response","true",""
"","null","html-keyboard-response","224","415632","0.0-1.0-1.111","null","","","","","","Correct!"
"","664","canvas-keyboard-response","225","416797","0.0-1.0-0.112","f","true","10","true","response","true",""
"","null","html-keyboard-response","226","418305","0.0-1.0-1.112","null","","","","","","Correct!"
"","1042","canvas-keyboard-response","227","419860","0.0-1.0-0.113","f","true","10","false","response","true",""
"","null","html-keyboard-response","228","421364","0.0-1.0-1.113","null","","","","","","Correct!"
"","735","canvas-keyboard-response","229","422601","0.0-1.0-0.114","f","true","40","true","response","true",""
"","null","html-keyboard-response","230","424110","0.0-1.0-1.114","null","","","","","","Correct!"
"","719","canvas-keyboard-response","231","425331","0.0-1.0-0.115","j","false","30","false","response","true",""
"","null","html-keyboard-response","232","426844","0.0-1.0-1.115","null","","","","","","Correct!"
"","1224","canvas-keyboard-response","233","428587","0.0-1.0-0.116","j","false","30","true","response","true",""
"","null","html-keyboard-response","234","430102","0.0-1.0-1.116","null","","","","","","Correct!"
"","622","canvas-keyboard-response","235","431227","0.0-1.0-0.117","f","true","40","false","response","true",""
"","null","html-keyboard-response","236","432729","0.0-1.0-1.117","null","","","","","","Correct!"
"","1316","canvas-keyboard-response","237","434548","0.0-1.0-0.118","j","false","30","false","response","true",""
"","null","html-keyboard-response","238","436074","0.0-1.0-1.118","null","","","","","","Correct!"
"","590","canvas-keyboard-response","239","437175","0.0-1.0-0.119","f","true","20","false","response","true",""
"","null","html-keyboard-response","240","438686","0.0-1.0-1.119","null","","","","","","Correct!"
"","1441","canvas-keyboard-response","241","440634","0.0-1.0-0.120","f","true","30","true","response","true",""
"","null","html-keyboard-response","242","442153","0.0-1.0-1.120","null","","","","","","Correct!"
"","715","canvas-keyboard-response","243","443370","0.0-1.0-0.121","j","false","10","true","response","true",""
"","null","html-keyboard-response","244","444874","0.0-1.0-1.121","null","","","","","","Correct!"
"","635","canvas-keyboard-response","245","446011","0.0-1.0-0.122","f","true","10","false","response","true",""
"","null","html-keyboard-response","246","447517","0.0-1.0-1.122","null","","","","","","Correct!"
"","1540","canvas-keyboard-response","247","449565","0.0-1.0-0.123","j","false","30","true","response","true",""
"","null","html-keyboard-response","248","451081","0.0-1.0-1.123","null","","","","","","Correct!"
"","609","canvas-keyboard-response","249","452195","0.0-1.0-0.124","f","true","30","false","response","true",""
"","null","html-keyboard-response","250","453713","0.0-1.0-1.124","null","","","","","","Correct!"
"","1937","canvas-keyboard-response","251","456161","0.0-1.0-0.125","f","true","40","true","response","true",""
"","null","html-keyboard-response","252","457670","0.0-1.0-1.125","null","","","","","","Correct!"
"","671","canvas-keyboard-response","253","458851","0.0-1.0-0.126","f","true","40","true","response","true",""
"","null","html-keyboard-response","254","460366","0.0-1.0-1.126","null","","","","","","Correct!"
"","582","canvas-keyboard-response","255","461450","0.0-1.0-0.127","f","true","10","false","response","true",""
"","null","html-keyboard-response","256","462961","0.0-1.0-1.127","null","","","","","","Correct!"
"","1972","canvas-keyboard-response","257","465436","0.0-1.0-0.128","j","false","40","true","response","true",""
"","null","html-keyboard-response","258","466958","0.0-1.0-1.128","null","","","","","","Correct!"
"","906","canvas-keyboard-response","259","468366","0.0-1.0-0.129","j","false","30","false","response","true",""
"","null","html-keyboard-response","260","469891","0.0-1.0-1.129","null","","","","","","Correct!"
"","663","canvas-keyboard-response","261","471056","0.0-1.0-0.130","f","true","20","true","response","true",""
"","null","html-keyboard-response","262","472565","0.0-1.0-1.130","null","","","","","","Correct!"
"","1377","canvas-keyboard-response","263","474450","0.0-1.0-0.131","j","false","20","true","response","true",""
"","null","html-keyboard-response","264","475959","0.0-1.0-1.131","null","","","","","","Correct!"
"","854","canvas-keyboard-response","265","477327","0.0-1.0-0.132","f","true","10","true","response","true",""
"","null","html-keyboard-response","266","478840","0.0-1.0-1.132","null","","","","","","Correct!"
"","1447","canvas-keyboard-response","267","480800","0.0-1.0-0.133","j","false","20","false","response","true",""
"","null","html-keyboard-response","268","482313","0.0-1.0-1.133","null","","","","","","Correct!"
"","563","canvas-keyboard-response","269","483378","0.0-1.0-0.134","f","true","10","false","response","true",""
"","null","html-keyboard-response","270","484894","0.0-1.0-1.134","null","","","","","","Correct!"
"","1090","canvas-keyboard-response","271","486491","0.0-1.0-0.135","j","false","20","true","response","true",""
"","null","html-keyboard-response","272","488008","0.0-1.0-1.135","null","","","","","","Correct!"
"","631","canvas-keyboard-response","273","489144","0.0-1.0-0.136","j","false","10","true","response","true",""
"","null","html-keyboard-response","274","490660","0.0-1.0-1.136","null","","","","","","Correct!"
"","835","canvas-keyboard-response","275","491998","0.0-1.0-0.137","f","true","20","true","response","true",""
"","null","html-keyboard-response","276","493505","0.0-1.0-1.137","null","","","","","","Correct!"
"","918","canvas-keyboard-response","277","494937","0.0-1.0-0.138","f","true","10","true","response","true",""
"","null","html-keyboard-response","278","496442","0.0-1.0-1.138","null","","","","","","Correct!"
"","1393","canvas-keyboard-response","279","498336","0.0-1.0-0.139","j","false","40","true","response","true",""
"","null","html-keyboard-response","280","499856","0.0-1.0-1.139","null","","","","","","Correct!"
"","993","canvas-keyboard-response","281","501361","0.0-1.0-0.140","f","true","30","true","response","true",""
"","null","html-keyboard-response","282","502883","0.0-1.0-1.140","null","","","","","","Correct!"
"","835","canvas-keyboard-response","283","504229","0.0-1.0-0.141","j","true","10","true","response","false",""
"","null","html-keyboard-response","284","505745","0.0-1.0-1.141","null","","","","","","Wrong"
"","699","canvas-keyboard-response","285","506949","0.0-1.0-0.142","f","true","30","false","response","true",""
"","null","html-keyboard-response","286","508473","0.0-1.0-1.142","null","","","","","","Correct!"
"","858","canvas-keyboard-response","287","509848","0.0-1.0-0.143","f","true","10","false","response","true",""
"","null","html-keyboard-response","288","511351","0.0-1.0-1.143","null","","","","","","Correct!"
"","510","canvas-keyboard-response","289","512364","0.0-1.0-0.144","f","true","10","true","response","true",""
"","null","html-keyboard-response","290","513873","0.0-1.0-1.144","null","","","","","","Correct!"
"","701","canvas-keyboard-response","291","515078","0.0-1.0-0.145","j","false","10","false","response","true",""
"","null","html-keyboard-response","292","516590","0.0-1.0-1.145","null","","","","","","Correct!"
"","1125","canvas-keyboard-response","293","518217","0.0-1.0-0.146","j","false","10","true","response","true",""
"","null","html-keyboard-response","294","519724","0.0-1.0-1.146","null","","","","","","Correct!"
"","1428","canvas-keyboard-response","295","521655","0.0-1.0-0.147","f","true","30","true","response","true",""
"","null","html-keyboard-response","296","523173","0.0-1.0-1.147","null","","","","","","Correct!"
"","1023","canvas-keyboard-response","297","524707","0.0-1.0-0.148","j","false","40","false","response","true",""
"","null","html-keyboard-response","298","526226","0.0-1.0-1.148","null","","","","","","Correct!"
"","673","canvas-keyboard-response","299","527401","0.0-1.0-0.149","f","true","20","false","response","true",""
"","null","html-keyboard-response","300","528915","0.0-1.0-1.149","null","","","","","","Correct!"
"","694","canvas-keyboard-response","301","530117","0.0-1.0-0.150","f","true","10","false","response","true",""
"","null","html-keyboard-response","302","531630","0.0-1.0-1.150","null","","","","","","Correct!"
"","781","canvas-keyboard-response","303","532925","0.0-1.0-0.151","j","false","20","false","response","true",""
"","null","html-keyboard-response","304","534441","0.0-1.0-1.151","null","","","","","","Correct!"
"","2068","canvas-keyboard-response","305","537022","0.0-1.0-0.152","j","false","30","true","response","true",""
"","null","html-keyboard-response","306","538539","0.0-1.0-1.152","null","","","","","","Correct!<br><br><b>Work faster!</b>"
"","1193","canvas-keyboard-response","307","540245","0.0-1.0-0.153","j","false","20","false","response","true",""
"","null","html-keyboard-response","308","541752","0.0-1.0-1.153","null","","","","","","Correct!"
"","1007","canvas-keyboard-response","309","543274","0.0-1.0-0.154","j","false","20","true","response","true",""
"","null","html-keyboard-response","310","544803","0.0-1.0-1.154","null","","","","","","Correct!"
"","705","canvas-keyboard-response","311","546009","0.0-1.0-0.155","j","false","40","false","response","true",""
"","null","html-keyboard-response","312","547513","0.0-1.0-1.155","null","","","","","","Correct!"
"","556","canvas-keyboard-response","313","548571","0.0-1.0-0.156","j","false","20","false","response","true",""
"","null","html-keyboard-response","314","550082","0.0-1.0-1.156","null","","","","","","Correct!"
"","570","canvas-keyboard-response","315","551174","0.0-1.0-0.157","f","true","40","false","response","true",""
"","null","html-keyboard-response","316","552692","0.0-1.0-1.157","null","","","","","","Correct!"
"","591","canvas-keyboard-response","317","553785","0.0-1.0-0.158","f","true","20","false","response","true",""
"","null","html-keyboard-response","318","555307","0.0-1.0-1.158","null","","","","","","Correct!"
"","549","canvas-keyboard-response","319","556366","0.0-1.0-0.159","f","true","40","false","response","true",""
"","null","html-keyboard-response","320","557902","0.0-1.0-1.159","null","","","","","","Correct!"
"","554","canvas-keyboard-response","321","558958","0.0-1.0-0.160","f","true","30","false","response","true",""
"","null","html-keyboard-response","322","560471","0.0-1.0-1.160","null","","","","","","Correct!"
"","575","canvas-keyboard-response","323","561548","0.0-1.0-0.161","f","true","10","false","response","true",""
"","null","html-keyboard-response","324","563051","0.0-1.0-1.161","null","","","","","","Correct!"
"","1631","canvas-keyboard-response","325","565184","0.0-1.0-0.162","j","false","40","true","response","true",""
"","null","html-keyboard-response","326","566713","0.0-1.0-1.162","null","","","","","","Correct!"
"","1414","canvas-keyboard-response","327","568638","0.0-1.0-0.163","f","true","30","true","response","true",""
"","null","html-keyboard-response","328","570142","0.0-1.0-1.163","null","","","","","","Correct!"
"","933","canvas-keyboard-response","329","571578","0.0-1.0-0.164","f","true","30","true","response","true",""
"","null","html-keyboard-response","330","573094","0.0-1.0-1.164","null","","","","","","Correct!"
"","1400","canvas-keyboard-response","331","575006","0.0-1.0-0.165","j","false","40","true","response","true",""
"","null","html-keyboard-response","332","576512","0.0-1.0-1.165","null","","","","","","Correct!"
"","693","canvas-keyboard-response","333","577710","0.0-1.0-0.166","j","false","30","false","response","true",""
"","null","html-keyboard-response","334","579214","0.0-1.0-1.166","null","","","","","","Correct!"
"","654","canvas-keyboard-response","335","580379","0.0-1.0-0.167","f","true","40","false","response","true",""
"","null","html-keyboard-response","336","581898","0.0-1.0-1.167","null","","","","","","Correct!"
"","1847","canvas-keyboard-response","337","584260","0.0-1.0-0.168","j","false","30","true","response","true",""
"","null","html-keyboard-response","338","585773","0.0-1.0-1.168","null","","","","","","Correct!"
"","623","canvas-keyboard-response","339","586898","0.0-1.0-0.169","j","false","30","false","response","true",""
"","null","html-keyboard-response","340","588413","0.0-1.0-1.169","null","","","","","","Correct!"
"","1416","canvas-keyboard-response","341","590331","0.0-1.0-0.170","f","true","20","false","response","true",""
"","null","html-keyboard-response","342","591858","0.0-1.0-1.170","null","","","","","","Correct!"
"","542","canvas-keyboard-response","343","592901","0.0-1.0-0.171","f","true","20","false","response","true",""
"","null","html-keyboard-response","344","594412","0.0-1.0-1.171","null","","","","","","Correct!"
"","965","canvas-keyboard-response","345","595882","0.0-1.0-0.172","j","false","20","true","response","true",""
"","null","html-keyboard-response","346","597408","0.0-1.0-1.172","null","","","","","","Correct!"
"","1244","canvas-keyboard-response","347","599159","0.0-1.0-0.173","f","true","40","true","response","true",""
"","null","html-keyboard-response","348","600682","0.0-1.0-1.173","null","","","","","","Correct!"
"","1145","canvas-keyboard-response","349","602330","0.0-1.0-0.174","f","true","30","true","response","true",""
"","null","html-keyboard-response","350","603852","0.0-1.0-1.174","null","","","","","","Correct!"
"","1390","canvas-keyboard-response","351","605744","0.0-1.0-0.175","f","true","10","true","response","true",""
"","null","html-keyboard-response","352","607273","0.0-1.0-1.175","null","","","","","","Correct!"
"","1530","canvas-keyboard-response","353","609314","0.0-1.0-0.176","j","false","20","true","response","true",""
"","null","html-keyboard-response","354","610821","0.0-1.0-1.176","null","","","","","","Correct!"
"","936","canvas-keyboard-response","355","612262","0.0-1.0-0.177","j","false","10","false","response","true",""
"","null","html-keyboard-response","356","613783","0.0-1.0-1.177","null","","","","","","Correct!"
"","673","canvas-keyboard-response","357","614957","0.0-1.0-0.178","j","false","40","false","response","true",""
"","null","html-keyboard-response","358","616471","0.0-1.0-1.178","null","","","","","","Correct!"
"","1921","canvas-keyboard-response","359","618915","0.0-1.0-0.179","j","false","30","true","response","true",""
"","null","html-keyboard-response","360","620425","0.0-1.0-1.179","null","","","","","","Correct!"
"","580","canvas-keyboard-response","361","621507","0.0-1.0-0.180","f","true","30","false","response","true",""
"","null","html-keyboard-response","362","623009","0.0-1.0-1.180","null","","","","","","Correct!"
"","1394","canvas-keyboard-response","363","624905","0.0-1.0-0.181","j","false","40","false","response","true",""
"","null","html-keyboard-response","364","626414","0.0-1.0-1.181","null","","","","","","Correct!"
"","537","canvas-keyboard-response","365","627455","0.0-1.0-0.182","j","false","30","false","response","true",""
"","null","html-keyboard-response","366","628964","0.0-1.0-1.182","null","","","","","","Correct!"
"","754","canvas-keyboard-response","367","630219","0.0-1.0-0.183","j","false","10","true","response","true",""
"","null","html-keyboard-response","368","631743","0.0-1.0-1.183","null","","","","","","Correct!"
"","597","canvas-keyboard-response","369","632847","0.0-1.0-0.184","f","true","40","false","response","true",""
"","null","html-keyboard-response","370","634365","0.0-1.0-1.184","null","","","","","","Correct!"
"","944","canvas-keyboard-response","371","635825","0.0-1.0-0.185","f","true","30","true","response","true",""
"","null","html-keyboard-response","372","637333","0.0-1.0-1.185","null","","","","","","Correct!"
"","582","canvas-keyboard-response","373","638417","0.0-1.0-0.186","f","true","30","false","response","true",""
"","null","html-keyboard-response","374","639927","0.0-1.0-1.186","null","","","","","","Correct!"
"","1415","canvas-keyboard-response","375","641844","0.0-1.0-0.187","j","false","40","true","response","true",""
"","null","html-keyboard-response","376","643375","0.0-1.0-1.187","null","","","","","","Correct!"
"","738","canvas-keyboard-response","377","644615","0.0-1.0-0.188","j","false","10","false","response","true",""
"","null","html-keyboard-response","378","646128","0.0-1.0-1.188","null","","","","","","Correct!"
"","1280","canvas-keyboard-response","379","647921","0.0-1.0-0.189","j","false","40","true","response","true",""
"","null","html-keyboard-response","380","649423","0.0-1.0-1.189","null","","","","","","Correct!"
"","558","canvas-keyboard-response","381","650483","0.0-1.0-0.190","f","true","30","false","response","true",""
"","null","html-keyboard-response","382","652001","0.0-1.0-1.190","null","","","","","","Correct!"
"","636","canvas-keyboard-response","383","653138","0.0-1.0-0.191","f","true","40","false","response","true",""
"","null","html-keyboard-response","384","654652","0.0-1.0-1.191","null","","","","","","Correct!"
"","1111","canvas-keyboard-response","385","656284","0.0-1.0-0.192","j","false","30","true","response","true",""
"","null","html-keyboard-response","386","657799","0.0-1.0-1.192","null","","","","","","Correct!"
"","901","canvas-keyboard-response","387","659202","0.0-1.0-0.193","j","false","40","true","response","true",""
"","null","html-keyboard-response","388","660720","0.0-1.0-1.193","null","","","","","","Correct!"
"","671","canvas-keyboard-response","389","661905","0.0-1.0-0.194","f","true","30","false","response","true",""
"","null","html-keyboard-response","390","663414","0.0-1.0-1.194","null","","","","","","Correct!"
"","1092","canvas-keyboard-response","391","665007","0.0-1.0-0.195","j","false","20","false","response","true",""
"","null","html-keyboard-response","392","666523","0.0-1.0-1.195","null","","","","","","Correct!"
"","598","canvas-keyboard-response","393","667622","0.0-1.0-0.196","f","true","40","false","response","true",""
"","null","html-keyboard-response","394","669144","0.0-1.0-1.196","null","","","","","","Correct!"
"","618","canvas-keyboard-response","395","670276","0.0-1.0-0.197","j","false","10","false","response","true",""
"","null","html-keyboard-response","396","671789","0.0-1.0-1.197","null","","","","","","Correct!"
"","556","canvas-keyboard-response","397","672859","0.0-1.0-0.198","j","false","20","false","response","true",""
"","null","html-keyboard-response","398","674372","0.0-1.0-1.198","null","","","","","","Correct!"
"","645","canvas-keyboard-response","399","675533","0.0-1.0-0.199","j","false","20","false","response","true",""
"","null","html-keyboard-response","400","677042","0.0-1.0-1.199","null","","","","","","Correct!"
"","671","canvas-keyboard-response","401","678220","0.0-1.0-0.200","j","false","40","false","response","true",""
"","null","html-keyboard-response","402","679728","0.0-1.0-1.200","null","","","","","","Correct!"
"","861","canvas-keyboard-response","403","681093","0.0-1.0-0.201","j","false","20","true","response","true",""
"","null","html-keyboard-response","404","682612","0.0-1.0-1.201","null","","","","","","Correct!"
"","505","canvas-keyboard-response","405","683618","0.0-1.0-0.202","f","true","20","false","response","true",""
"","null","html-keyboard-response","406","685144","0.0-1.0-1.202","null","","","","","","Correct!"
"","944","canvas-keyboard-response","407","686599","0.0-1.0-0.203","j","false","40","false","response","true",""
"","null","html-keyboard-response","408","688118","0.0-1.0-1.203","null","","","","","","Correct!"
"","682","canvas-keyboard-response","409","689305","0.0-1.0-0.204","f","true","10","false","response","true",""
"","null","html-keyboard-response","410","690824","0.0-1.0-1.204","null","","","","","","Correct!"
"","988","canvas-keyboard-response","411","692313","0.0-1.0-0.205","j","true","20","true","response","false",""
"","null","html-keyboard-response","412","693815","0.0-1.0-1.205","null","","","","","","Wrong"
"","700","canvas-keyboard-response","413","695024","0.0-1.0-0.206","j","false","40","false","response","true",""
"","null","html-keyboard-response","414","696539","0.0-1.0-1.206","null","","","","","","Correct!"
"","1252","canvas-keyboard-response","415","698306","0.0-1.0-0.207","j","false","20","false","response","true",""
"","null","html-keyboard-response","416","699815","0.0-1.0-1.207","null","","","","","","Correct!"
"","613","canvas-keyboard-response","417","700933","0.0-1.0-0.208","j","false","10","false","response","true",""
"","null","html-keyboard-response","418","702446","0.0-1.0-1.208","null","","","","","","Correct!"
"","1342","canvas-keyboard-response","419","704289","0.0-1.0-0.209","f","true","30","true","response","true",""
"","null","html-keyboard-response","420","705805","0.0-1.0-1.209","null","","","","","","Correct!"
"","1170","canvas-keyboard-response","421","707483","0.0-1.0-0.210","f","true","20","true","response","true",""
"","null","html-keyboard-response","422","709018","0.0-1.0-1.210","null","","","","","","Correct!"
"","653","canvas-keyboard-response","423","710189","0.0-1.0-0.211","j","false","40","false","response","true",""
"","null","html-keyboard-response","424","711718","0.0-1.0-1.211","null","","","","","","Correct!"
"","646","canvas-keyboard-response","425","712867","0.0-1.0-0.212","f","true","30","false","response","true",""
"","null","html-keyboard-response","426","714372","0.0-1.0-1.212","null","","","","","","Correct!"
"","1921","canvas-keyboard-response","427","716804","0.0-1.0-0.213","j","true","40","true","response","false",""
"","null","html-keyboard-response","428","718314","0.0-1.0-1.213","null","","","","","","Wrong"
"","713","canvas-keyboard-response","429","719541","0.0-1.0-0.214","f","true","40","false","response","true",""
"","null","html-keyboard-response","430","721050","0.0-1.0-1.214","null","","","","","","Correct!"
"","1115","canvas-keyboard-response","431","722669","0.0-1.0-0.215","f","true","30","true","response","true",""
"","null","html-keyboard-response","432","724183","0.0-1.0-1.215","null","","","","","","Correct!"
"","709","canvas-keyboard-response","433","725395","0.0-1.0-0.216","f","true","10","true","response","true",""
"","null","html-keyboard-response","434","726913","0.0-1.0-1.216","null","","","","","","Correct!"
"","1986","canvas-keyboard-response","435","729413","0.0-1.0-0.217","f","true","20","true","response","true",""
"","null","html-keyboard-response","436","730936","0.0-1.0-1.217","null","","","","","","Correct!"
"","1544","canvas-keyboard-response","437","732982","0.0-1.0-0.218","j","false","20","true","response","true",""
"","null","html-keyboard-response","438","734502","0.0-1.0-1.218","null","","","","","","Correct!"
"","632","canvas-keyboard-response","439","735637","0.0-1.0-0.219","f","true","20","false","response","true",""
"","null","html-keyboard-response","440","737160","0.0-1.0-1.219","null","","","","","","Correct!"
"","1750","canvas-keyboard-response","441","739412","0.0-1.0-0.220","f","true","10","false","response","true",""
"","null","html-keyboard-response","442","740919","0.0-1.0-1.220","null","","","","","","Correct!"
"","2459","canvas-keyboard-response","443","743880","0.0-1.0-0.221","j","false","40","true","response","true",""
"","null","html-keyboard-response","444","745394","0.0-1.0-1.221","null","","","","","","Correct!<br><br><b>Work faster!</b>"
"","864","canvas-keyboard-response","445","746759","0.0-1.0-0.222","j","false","10","false","response","true",""
"","null","html-keyboard-response","446","748267","0.0-1.0-1.222","null","","","","","","Correct!"
"","947","canvas-keyboard-response","447","749721","0.0-1.0-0.223","j","false","20","false","response","true",""
"","null","html-keyboard-response","448","751227","0.0-1.0-1.223","null","","","","","","Correct!"
"","1020","canvas-keyboard-response","449","752749","0.0-1.0-0.224","j","false","30","true","response","true",""
"","null","html-keyboard-response","450","754270","0.0-1.0-1.224","null","","","","","","Correct!"
"","757","canvas-keyboard-response","451","755529","0.0-1.0-0.225","j","false","10","true","response","true",""
"","null","html-keyboard-response","452","757055","0.0-1.0-1.225","null","","","","","","Correct!"
"","588","canvas-keyboard-response","453","758172","0.0-1.0-0.226","f","true","20","false","response","true",""
"","null","html-keyboard-response","454","759675","0.0-1.0-1.226","null","","","","","","Correct!"
"","496","canvas-keyboard-response","455","760686","0.0-1.0-0.227","f","true","40","false","response","true",""
"","null","html-keyboard-response","456","762208","0.0-1.0-1.227","null","","","","","","Correct!"
"","1145","canvas-keyboard-response","457","763858","0.0-1.0-0.228","j","false","40","true","response","true",""
"","null","html-keyboard-response","458","765364","0.0-1.0-1.228","null","","","","","","Correct!"
"","1055","canvas-keyboard-response","459","766946","0.0-1.0-0.229","j","false","30","true","response","true",""
"","null","html-keyboard-response","460","768461","0.0-1.0-1.229","null","","","","","","Correct!"
"","1063","canvas-keyboard-response","461","770025","0.0-1.0-0.230","j","false","20","true","response","true",""
"","null","html-keyboard-response","462","771554","0.0-1.0-1.230","null","","","","","","Correct!"
"","1258","canvas-keyboard-response","463","773322","0.0-1.0-0.231","j","false","10","false","response","true",""
"","null","html-keyboard-response","464","774828","0.0-1.0-1.231","null","","","","","","Correct!"
"","770","canvas-keyboard-response","465","776099","0.0-1.0-0.232","j","false","20","false","response","true",""
"","null","html-keyboard-response","466","777613","0.0-1.0-1.232","null","","","","","","Correct!"
"","525","canvas-keyboard-response","467","778645","0.0-1.0-0.233","j","false","20","false","response","true",""
"","null","html-keyboard-response","468","780160","0.0-1.0-1.233","null","","","","","","Correct!"
"","1054","canvas-keyboard-response","469","781717","0.0-1.0-0.234","j","false","20","true","response","true",""
"","null","html-keyboard-response","470","783227","0.0-1.0-1.234","null","","","","","","Correct!"
"","1398","canvas-keyboard-response","471","785131","0.0-1.0-0.235","j","true","40","true","response","false",""
"","null","html-keyboard-response","472","786642","0.0-1.0-1.235","null","","","","","","Wrong"
"","1878","canvas-keyboard-response","473","789028","0.0-1.0-0.236","j","false","20","true","response","true",""
"","null","html-keyboard-response","474","790542","0.0-1.0-1.236","null","","","","","","Correct!"
"","1184","canvas-keyboard-response","475","792234","0.0-1.0-0.237","f","true","40","true","response","true",""
"","null","html-keyboard-response","476","793752","0.0-1.0-1.237","null","","","","","","Correct!"
"","1098","canvas-keyboard-response","477","795361","0.0-1.0-0.238","j","false","30","true","response","true",""
"","null","html-keyboard-response","478","796878","0.0-1.0-1.238","null","","","","","","Correct!"
"","690","canvas-keyboard-response","479","798076","0.0-1.0-0.239","f","true","10","false","response","true",""
"","null","html-keyboard-response","480","799598","0.0-1.0-1.239","null","","","","","","Correct!"
"","736","canvas-keyboard-response","481","800836","0.0-1.0-0.240","j","false","30","false","response","true",""
"","null","html-keyboard-response","482","802347","0.0-1.0-1.240","null","","","","","","Correct!"
"","664","canvas-keyboard-response","483","803513","0.0-1.0-0.241","j","false","10","false","response","true",""
"","null","html-keyboard-response","484","805024","0.0-1.0-1.241","null","","","","","","Correct!"
"","676","canvas-keyboard-response","485","806208","0.0-1.0-0.242","j","false","10","false","response","true",""
"","null","html-keyboard-response","486","807718","0.0-1.0-1.242","null","","","","","","Correct!"
"","2054","canvas-keyboard-response","487","810288","0.0-1.0-0.243","f","true","30","true","response","true",""
"","null","html-keyboard-response","488","811806","0.0-1.0-1.243","null","","","","","","Correct!<br><br><b>Work faster!</b>"
"","602","canvas-keyboard-response","489","812916","0.0-1.0-0.244","f","true","20","false","response","true",""
"","null","html-keyboard-response","490","814426","0.0-1.0-1.244","null","","","","","","Correct!"
"","660","canvas-keyboard-response","491","815588","0.0-1.0-0.245","f","true","40","false","response","true",""
"","null","html-keyboard-response","492","817109","0.0-1.0-1.245","null","","","","","","Correct!"
"","1379","canvas-keyboard-response","493","818992","0.0-1.0-0.246","j","false","30","true","response","true",""
"","null","html-keyboard-response","494","820501","0.0-1.0-1.246","null","","","","","","Correct!"
"","1161","canvas-keyboard-response","495","822169","0.0-1.0-0.247","j","false","30","true","response","true",""
"","null","html-keyboard-response","496","823675","0.0-1.0-1.247","null","","","","","","Correct!"
"","583","canvas-keyboard-response","497","824761","0.0-1.0-0.248","j","false","10","false","response","true",""
"","null","html-keyboard-response","498","826288","0.0-1.0-1.248","null","","","","","","Correct!"
"","716","canvas-keyboard-response","499","827509","0.0-1.0-0.249","f","true","10","false","response","true",""
"","null","html-keyboard-response","500","829038","0.0-1.0-1.249","null","","","","","","Correct!"
"","1348","canvas-keyboard-response","501","830888","0.0-1.0-0.250","f","true","20","true","response","true",""
"","null","html-keyboard-response","502","832413","0.0-1.0-1.250","null","","","","","","Correct!"
"","1107","canvas-keyboard-response","503","834032","0.0-1.0-0.251","j","false","20","false","response","true",""
"","null","html-keyboard-response","504","835534","0.0-1.0-1.251","null","","","","","","Correct!"
"","757","canvas-keyboard-response","505","836800","0.0-1.0-0.252","f","true","30","true","response","true",""
"","null","html-keyboard-response","506","838312","0.0-1.0-1.252","null","","","","","","Correct!"
"","1044","canvas-keyboard-response","507","839863","0.0-1.0-0.253","f","true","40","true","response","true",""
"","null","html-keyboard-response","508","841375","0.0-1.0-1.253","null","","","","","","Correct!"
"","1040","canvas-keyboard-response","509","842916","0.0-1.0-0.254","f","true","40","true","response","true",""
"","null","html-keyboard-response","510","844426","0.0-1.0-1.254","null","","","","","","Correct!"
"","1428","canvas-keyboard-response","511","846355","0.0-1.0-0.255","j","false","10","true","response","true",""
"","null","html-keyboard-response","512","847873","0.0-1.0-1.255","null","","","","","","Correct!"
"","1409","canvas-keyboard-response","513","849790","0.0-1.0-0.256","j","true","40","true","response","false",""
"","null","html-keyboard-response","514","851313","0.0-1.0-1.256","null","","","","","","Wrong"
"","614","canvas-keyboard-response","515","852429","0.0-1.0-0.257","f","true","10","false","response","true",""
"","null","html-keyboard-response","516","853944","0.0-1.0-1.257","null","","","","","","Correct!"
"","1225","canvas-keyboard-response","517","855670","0.0-1.0-0.258","j","false","30","true","response","true",""
"","null","html-keyboard-response","518","857193","0.0-1.0-1.258","null","","","","","","Correct!"
"","959","canvas-keyboard-response","519","858673","0.0-1.0-0.259","f","true","30","true","response","true",""
"","null","html-keyboard-response","520","860194","0.0-1.0-1.259","null","","","","","","Correct!"
"","1159","canvas-keyboard-response","521","861867","0.0-1.0-0.260","j","false","40","false","response","true",""
"","null","html-keyboard-response","522","863387","0.0-1.0-1.260","null","","","","","","Correct!"
"","600","canvas-keyboard-response","523","864499","0.0-1.0-0.261","f","true","10","false","response","true",""
"","null","html-keyboard-response","524","866028","0.0-1.0-1.261","null","","","","","","Correct!"
"","907","canvas-keyboard-response","525","867440","0.0-1.0-0.262","f","true","10","true","response","true",""
"","null","html-keyboard-response","526","868972","0.0-1.0-1.262","null","","","","","","Correct!"
"","797","canvas-keyboard-response","527","870271","0.0-1.0-0.263","j","false","10","true","response","true",""
"","null","html-keyboard-response","528","871782","0.0-1.0-1.263","null","","","","","","Correct!"
"","1757","canvas-keyboard-response","529","874059","0.0-1.0-0.264","f","true","40","true","response","true",""
"","null","html-keyboard-response","530","875583","0.0-1.0-1.264","null","","","","","","Correct!"
"","990","canvas-keyboard-response","531","877074","0.0-1.0-0.265","j","false","10","true","response","true",""
"","null","html-keyboard-response","532","878583","0.0-1.0-1.265","null","","","","","","Correct!"
"","556","canvas-keyboard-response","533","879641","0.0-1.0-0.266","f","true","40","false","response","true",""
"","null","html-keyboard-response","534","881144","0.0-1.0-1.266","null","","","","","","Correct!"
"","1159","canvas-keyboard-response","535","882805","0.0-1.0-0.267","j","false","20","false","response","true",""
"","null","html-keyboard-response","536","884323","0.0-1.0-1.267","null","","","","","","Correct!"
"","623","canvas-keyboard-response","537","885448","0.0-1.0-0.268","f","true","10","false","response","true",""
"","null","html-keyboard-response","538","886973","0.0-1.0-1.268","null","","","","","","Correct!"
"","1271","canvas-keyboard-response","539","888745","0.0-1.0-0.269","j","false","20","true","response","true",""
"","null","html-keyboard-response","540","890253","0.0-1.0-1.269","null","","","","","","Correct!"
"","624","canvas-keyboard-response","541","891379","0.0-1.0-0.270","f","true","30","false","response","true",""
"","null","html-keyboard-response","542","892895","0.0-1.0-1.270","null","","","","","","Correct!"
"","621","canvas-keyboard-response","543","894025","0.0-1.0-0.271","f","true","40","false","response","true",""
"","null","html-keyboard-response","544","895548","0.0-1.0-1.271","null","","","","","","Correct!"
"","900","canvas-keyboard-response","545","896958","0.0-1.0-0.272","f","true","40","true","response","true",""
"","null","html-keyboard-response","546","898472","0.0-1.0-1.272","null","","","","","","Correct!"
"","1738","canvas-keyboard-response","547","900725","0.0-1.0-0.273","f","true","40","true","response","true",""
"","null","html-keyboard-response","548","902234","0.0-1.0-1.273","null","","","","","","Correct!"
"","1011","canvas-keyboard-response","549","903749","0.0-1.0-0.274","f","true","10","true","response","true",""
"","null","html-keyboard-response","550","905251","0.0-1.0-1.274","null","","","","","","Correct!"
"","931","canvas-keyboard-response","551","906692","0.0-1.0-0.275","f","true","40","true","response","true",""
"","null","html-keyboard-response","552","908208","0.0-1.0-1.275","null","","","","","","Correct!"
"","899","canvas-keyboard-response","553","909612","0.0-1.0-0.276","j","false","40","false","response","true",""
"","null","html-keyboard-response","554","911133","0.0-1.0-1.276","null","","","","","","Correct!"
"","1763","canvas-keyboard-response","555","913398","0.0-1.0-0.277","j","true","40","true","response","false",""
"","null","html-keyboard-response","556","914914","0.0-1.0-1.277","null","","","","","","Wrong"
"","599","canvas-keyboard-response","557","916015","0.0-1.0-0.278","f","true","30","false","response","true",""
"","null","html-keyboard-response","558","917549","0.0-1.0-1.278","null","","","","","","Correct!"
"","933","canvas-keyboard-response","559","918986","0.0-1.0-0.279","j","true","10","true","response","false",""
"","null","html-keyboard-response","560","920493","0.0-1.0-1.279","null","","","","","","Wrong"
"","1115","canvas-keyboard-response","561","922110","0.0-1.0-0.280","j","false","20","false","response","true",""
"","null","html-keyboard-response","562","923622","0.0-1.0-1.280","null","","","","","","Correct!"
"","625","canvas-keyboard-response","563","924755","0.0-1.0-0.281","f","true","20","false","response","true",""
"","null","html-keyboard-response","564","926273","0.0-1.0-1.281","null","","","","","","Correct!"
"","1733","canvas-keyboard-response","565","928508","0.0-1.0-0.282","j","false","20","true","response","true",""
"","null","html-keyboard-response","566","930022","0.0-1.0-1.282","null","","","","","","Correct!"
"","1071","canvas-keyboard-response","567","931595","0.0-1.0-0.283","f","true","20","true","response","true",""
"","null","html-keyboard-response","568","933099","0.0-1.0-1.283","null","","","","","","Correct!"
"","745","canvas-keyboard-response","569","934346","0.0-1.0-0.284","j","false","10","true","response","true",""
"","null","html-keyboard-response","570","935863","0.0-1.0-1.284","null","","","","","","Correct!"
"","922","canvas-keyboard-response","571","937300","0.0-1.0-0.285","f","true","10","true","response","true",""
"","null","html-keyboard-response","572","938833","0.0-1.0-1.285","null","","","","","","Correct!"
"","723","canvas-keyboard-response","573","940077","0.0-1.0-0.286","j","false","10","true","response","true",""
"","null","html-keyboard-response","574","941580","0.0-1.0-1.286","null","","","","","","Correct!"
"","744","canvas-keyboard-response","575","942828","0.0-1.0-0.287","j","false","10","true","response","true",""
"","null","html-keyboard-response","576","944352","0.0-1.0-1.287","null","","","","","","Correct!"
"","907","canvas-keyboard-response","577","945761","0.0-1.0-0.288","f","true","30","true","response","true",""
"","null","html-keyboard-response","578","947272","0.0-1.0-1.288","null","","","","","","Correct!"
"","1531","canvas-keyboard-response","579","949305","0.0-1.0-0.289","j","false","20","true","response","true",""
"","null","html-keyboard-response","580","950834","0.0-1.0-1.289","null","","","","","","Correct!"
"","1708","canvas-keyboard-response","581","953057","0.0-1.0-0.290","j","false","40","true","response","true",""
"","null","html-keyboard-response","582","954564","0.0-1.0-1.290","null","","","","","","Correct!"
"","1019","canvas-keyboard-response","583","956089","0.0-1.0-0.291","f","true","20","true","response","true",""
"","null","html-keyboard-response","584","957632","0.0-1.0-1.291","null","","","","","","Correct!"
"","763","canvas-keyboard-response","585","958898","0.0-1.0-0.292","j","false","40","false","response","true",""
"","null","html-keyboard-response","586","960414","0.0-1.0-1.292","null","","","","","","Correct!"
"","611","canvas-keyboard-response","587","961545","0.0-1.0-0.293","j","false","40","false","response","true",""
"","null","html-keyboard-response","588","963057","0.0-1.0-1.293","null","","","","","","Correct!"
"","659","canvas-keyboard-response","589","964219","0.0-1.0-0.294","f","true","20","false","response","true",""
"","null","html-keyboard-response","590","965752","0.0-1.0-1.294","null","","","","","","Correct!"
"","1145","canvas-keyboard-response","591","967413","0.0-1.0-0.295","j","false","10","false","response","true",""
"","null","html-keyboard-response","592","968917","0.0-1.0-1.295","null","","","","","","Correct!"
"","689","canvas-keyboard-response","593","970109","0.0-1.0-0.296","f","true","10","true","response","true",""
"","null","html-keyboard-response","594","971631","0.0-1.0-1.296","null","","","","","","Correct!"
"","591","canvas-keyboard-response","595","972732","0.0-1.0-0.297","f","true","40","false","response","true",""
"","null","html-keyboard-response","596","974252","0.0-1.0-1.297","null","","","","","","Correct!"
"","1389","canvas-keyboard-response","597","976143","0.0-1.0-0.298","j","false","40","true","response","true",""
"","null","html-keyboard-response","598","977647","0.0-1.0-1.298","null","","","","","","Correct!"
"","662","canvas-keyboard-response","599","978811","0.0-1.0-0.299","j","false","30","false","response","true",""
"","null","html-keyboard-response","600","980334","0.0-1.0-1.299","null","","","","","","Correct!"
"","603","canvas-keyboard-response","601","981438","0.0-1.0-0.300","j","false","20","false","response","true",""
"","null","html-keyboard-response","602","982943","0.0-1.0-1.300","null","","","","","","Correct!"
"","881","canvas-keyboard-response","603","984339","0.0-1.0-0.301","j","false","10","true","response","true",""
"","null","html-keyboard-response","604","985858","0.0-1.0-1.301","null","","","","","","Correct!"
"","1099","canvas-keyboard-response","605","987472","0.0-1.0-0.302","f","true","30","true","response","true",""
"","null","html-keyboard-response","606","988994","0.0-1.0-1.302","null","","","","","","Correct!"
"","560","canvas-keyboard-response","607","990055","0.0-1.0-0.303","f","true","30","false","response","true",""
"","null","html-keyboard-response","608","991562","0.0-1.0-1.303","null","","","","","","Correct!"
"","872","canvas-keyboard-response","609","992937","0.0-1.0-0.304","j","false","10","false","response","true",""
"","null","html-keyboard-response","610","994439","0.0-1.0-1.304","null","","","","","","Correct!"
"","659","canvas-keyboard-response","611","995613","0.0-1.0-0.305","f","true","40","false","response","true",""
"","null","html-keyboard-response","612","997131","0.0-1.0-1.305","null","","","","","","Correct!"
"","941","canvas-keyboard-response","613","998574","0.0-1.0-0.306","j","false","40","false","response","true",""
"","null","html-keyboard-response","614","1000093","0.0-1.0-1.306","null","","","","","","Correct!"
"","1034","canvas-keyboard-response","615","1001636","0.0-1.0-0.307","f","true","20","true","response","true",""
"","null","html-keyboard-response","616","1003162","0.0-1.0-1.307","null","","","","","","Correct!"
"","461","canvas-keyboard-response","617","1004124","0.0-1.0-0.308","f","true","10","false","response","true",""
"","null","html-keyboard-response","618","1005633","0.0-1.0-1.308","null","","","","","","Correct!"
"","638","canvas-keyboard-response","619","1006782","0.0-1.0-0.309","f","true","40","false","response","true",""
"","null","html-keyboard-response","620","1008284","0.0-1.0-1.309","null","","","","","","Correct!"
"","834","canvas-keyboard-response","621","1009621","0.0-1.0-0.310","f","true","20","true","response","true",""
"","null","html-keyboard-response","622","1011123","0.0-1.0-1.310","null","","","","","","Correct!"
"","938","canvas-keyboard-response","623","1012563","0.0-1.0-0.311","j","false","20","true","response","true",""
"","null","html-keyboard-response","624","1014070","0.0-1.0-1.311","null","","","","","","Correct!"
"","839","canvas-keyboard-response","625","1015411","0.0-1.0-0.312","f","true","40","true","response","true",""
"","null","html-keyboard-response","626","1016932","0.0-1.0-1.312","null","","","","","","Correct!"
"","585","canvas-keyboard-response","627","1018019","0.0-1.0-0.313","f","true","30","false","response","true",""
"","null","html-keyboard-response","628","1019524","0.0-1.0-1.313","null","","","","","","Correct!"
"","1133","canvas-keyboard-response","629","1021172","0.0-1.0-0.314","f","true","20","true","response","true",""
"","null","html-keyboard-response","630","1022682","0.0-1.0-1.314","null","","","","","","Correct!"
"","660","canvas-keyboard-response","631","1023858","0.0-1.0-0.315","f","true","30","false","response","true",""
"","null","html-keyboard-response","632","1025369","0.0-1.0-1.315","null","","","","","","Correct!"
"","678","canvas-keyboard-response","633","1026549","0.0-1.0-0.316","j","false","10","false","response","true",""
"","null","html-keyboard-response","634","1028063","0.0-1.0-1.316","null","","","","","","Correct!"
"","636","canvas-keyboard-response","635","1029215","0.0-1.0-0.317","j","false","30","false","response","true",""
"","null","html-keyboard-response","636","1030730","0.0-1.0-1.317","null","","","","","","Correct!"
"","525","canvas-keyboard-response","637","1031759","0.0-1.0-0.318","f","true","10","false","response","true",""
"","null","html-keyboard-response","638","1033271","0.0-1.0-1.318","null","","","","","","Correct!"
"","1124","canvas-keyboard-response","639","1034898","0.0-1.0-0.319","j","true","40","true","response","false",""
"","null","html-keyboard-response","640","1036423","0.0-1.0-1.319","null","","","","","","Wrong"
"","24720","html-button-response","641","1061675","0.0-2.0","0","","","","","","<p><b>Results</b></p>
          <p>In the table, you can see mean response times for different search conditions:</p>
          <table><tr><th>Search type</th><th>Set size</th><th>Mean RT present</th><th>Mean RT absent</th></tr><tr><td>Feature</td><td>10</td><td>914.6</td><td>781.3</td></tr><tr><td>Feature</td><td>20</td><td>674.2</td><td>903.9</td></tr><tr><td>Feature</td><td>30</td><td>629.55</td><td>950</td></tr><tr><td>Feature</td><td>40</td><td>621.6</td><td>991.95</td></tr><tr><td>Conjunction</td><td>10</td><td>889.4</td><td>931.5</td></tr><tr><td>Conjunction</td><td>20</td><td>1130.85</td><td>1321.6</td></tr><tr><td>Conjunction</td><td>30</td><td>1205.45</td><td>1495.4</td></tr><tr><td>Conjunction</td><td>40</td><td>1218.45</td><td>1985.6</td></tr></table>
          <p>Press any key to <b>save</b> the data and complete the experiment. Thank you!</p>"
