"view_history","rt","trial_type","trial_index","time_elapsed","internal_node_id","response","present","setSize","conjuction","task","correct","stimulus"
"[{""page_index"":0,""viewing_time"":68960},{""page_index"":1,""viewing_time"":20395}]","89356","instructions","0","89358","0.0-0.0","","","","","","",""
"","3071","canvas-keyboard-response","1","92962","0.0-1.0-0.0","j","true","10","false","response","false",""
"","null","html-keyboard-response","2","94490","0.0-1.0-1.0","null","","","","","","Wrong<br><br><b>Work faster!</b>"
"","4720","canvas-keyboard-response","3","99712","0.0-1.0-0.1","j","false","20","true","response","true",""
"","null","html-keyboard-response","4","101220","0.0-1.0-1.1","null","","","","","","Correct!<br><br><b>Work faster!</b>"
"","1443","canvas-keyboard-response","5","103179","0.0-1.0-0.2","f","true","30","false","response","true",""
"","null","html-keyboard-response","6","104694","0.0-1.0-1.2","null","","","","","","Correct!"
"","1549","canvas-keyboard-response","7","106758","0.0-1.0-0.3","f","true","10","true","response","true",""
"","null","html-keyboard-response","8","108278","0.0-1.0-1.3","null","","","","","","Correct!"
"","4746","canvas-keyboard-response","9","113539","0.0-1.0-0.4","j","false","40","false","response","true",""
"","null","html-keyboard-response","10","115055","0.0-1.0-1.4","null","","","","","","Correct!<br><br><b>Work faster!</b>"
"","1601","canvas-keyboard-response","11","117166","0.0-1.0-0.5","f","true","30","false","response","true",""
"","null","html-keyboard-response","12","118692","0.0-1.0-1.5","null","","","","","","Correct!"
"","3090","canvas-keyboard-response","13","122294","0.0-1.0-0.6","j","false","20","false","response","true",""
"","null","html-keyboard-response","14","123806","0.0-1.0-1.6","null","","","","","","Correct!<br><br><b>Work faster!</b>"
"","5268","canvas-keyboard-response","15","129585","0.0-1.0-0.7","j","false","30","true","response","true",""
"","null","html-keyboard-response","16","131094","0.0-1.0-1.7","null","","","","","","Correct!<br><br><b>Work faster!</b>"
"","3204","canvas-keyboard-response","17","134808","0.0-1.0-0.8","j","false","30","true","response","true",""
"","null","html-keyboard-response","18","136318","0.0-1.0-1.8","null","","","","","","Correct!<br><br><b>Work faster!</b>"
"","1491","canvas-keyboard-response","19","138310","0.0-1.0-0.9","f","true","20","true","response","true",""
"","null","html-keyboard-response","20","139830","0.0-1.0-1.9","null","","","","","","Correct!"
"","1598","canvas-keyboard-response","21","141930","0.0-1.0-0.10","j","false","30","false","response","true",""
"","null","html-keyboard-response","22","143441","0.0-1.0-1.10","null","","","","","","Correct!"
"","613","canvas-keyboard-response","23","144563","0.0-1.0-0.11","f","true","20","false","response","true",""
"","null","html-keyboard-response","24","146073","0.0-1.0-1.11","null","","","","","","Correct!"
"","780","canvas-keyboard-response","25","147354","0.0-1.0-0.12","f","true","40","true","response","true",""
"","null","html-keyboard-response","26","148859","0.0-1.0-1.12","null","","","","","","Correct!"
"","1036","canvas-keyboard-response","27","150398","0.0-1.0-0.13","f","true","40","false","response","true",""
"","null","html-keyboard-response","28","151902","0.0-1.0-1.13","null","","","","","","Correct!"
"","980","canvas-keyboard-response","29","153384","0.0-1.0-0.14","j","false","20","false","response","true",""
"","null","html-keyboard-response","30","154905","0.0-1.0-1.14","null","","","","","","Correct!"
"","3522","canvas-keyboard-response","31","158929","0.0-1.0-0.15","j","false","40","true","response","true",""
"","null","html-keyboard-response","32","160443","0.0-1.0-1.15","null","","","","","","Correct!<br><br><b>Work faster!</b>"
"","1516","canvas-keyboard-response","33","162462","0.0-1.0-0.16","j","false","10","true","response","true",""
"","null","html-keyboard-response","34","163976","0.0-1.0-1.16","null","","","","","","Correct!"
"","1337","canvas-keyboard-response","35","165816","0.0-1.0-0.17","j","false","10","true","response","true",""
"","null","html-keyboard-response","36","167325","0.0-1.0-1.17","null","","","","","","Correct!"
"","1246","canvas-keyboard-response","37","169074","0.0-1.0-0.18","f","true","30","true","response","true",""
"","null","html-keyboard-response","38","170575","0.0-1.0-1.18","null","","","","","","Correct!"
"","806","canvas-keyboard-response","39","171889","0.0-1.0-0.19","f","true","40","false","response","true",""
"","null","html-keyboard-response","40","173402","0.0-1.0-1.19","null","","","","","","Correct!"
"","668","canvas-keyboard-response","41","174577","0.0-1.0-0.20","f","true","30","false","response","true",""
"","null","html-keyboard-response","42","176086","0.0-1.0-1.20","null","","","","","","Correct!"
"","2258","canvas-keyboard-response","43","178860","0.0-1.0-0.21","j","false","30","true","response","true",""
"","null","html-keyboard-response","44","180370","0.0-1.0-1.21","null","","","","","","Correct!<br><br><b>Work faster!</b>"
"","563","canvas-keyboard-response","45","181435","0.0-1.0-0.22","f","true","40","false","response","true",""
"","null","html-keyboard-response","46","182961","0.0-1.0-1.22","null","","","","","","Correct!"
"","1146","canvas-keyboard-response","47","184630","0.0-1.0-0.23","f","true","30","true","response","true",""
"","null","html-keyboard-response","48","186133","0.0-1.0-1.23","null","","","","","","Correct!"
"","1187","canvas-keyboard-response","49","187829","0.0-1.0-0.24","f","true","30","true","response","true",""
"","null","html-keyboard-response","50","189333","0.0-1.0-1.24","null","","","","","","Correct!"
"","932","canvas-keyboard-response","51","190768","0.0-1.0-0.25","f","true","20","true","response","true",""
"","null","html-keyboard-response","52","192289","0.0-1.0-1.25","null","","","","","","Correct!"
"","1160","canvas-keyboard-response","53","193959","0.0-1.0-0.26","j","false","10","false","response","true",""
"","null","html-keyboard-response","54","195472","0.0-1.0-1.26","null","","","","","","Correct!"
"","2445","canvas-keyboard-response","55","198424","0.0-1.0-0.27","f","true","40","false","response","true",""
"","null","html-keyboard-response","56","199931","0.0-1.0-1.27","null","","","","","","Correct!<br><br><b>Work faster!</b>"
"","1395","canvas-keyboard-response","57","201840","0.0-1.0-0.28","f","true","30","true","response","true",""
"","null","html-keyboard-response","58","203351","0.0-1.0-1.28","null","","","","","","Correct!"
"","633","canvas-keyboard-response","59","204487","0.0-1.0-0.29","f","true","10","false","response","true",""
"","null","html-keyboard-response","60","205993","0.0-1.0-1.29","null","","","","","","Correct!"
"","3959","canvas-keyboard-response","61","210463","0.0-1.0-0.30","j","false","40","true","response","true",""
"","null","html-keyboard-response","62","211993","0.0-1.0-1.30","null","","","","","","Correct!<br><br><b>Work faster!</b>"
"","779","canvas-keyboard-response","63","213287","0.0-1.0-0.31","f","true","30","false","response","true",""
"","null","html-keyboard-response","64","214804","0.0-1.0-1.31","null","","","","","","Correct!"
"","714","canvas-keyboard-response","65","216020","0.0-1.0-0.32","f","true","30","false","response","true",""
"","null","html-keyboard-response","66","217539","0.0-1.0-1.32","null","","","","","","Correct!"
"","2931","canvas-keyboard-response","67","220974","0.0-1.0-0.33","j","false","40","true","response","true",""
"","null","html-keyboard-response","68","222493","0.0-1.0-1.33","null","","","","","","Correct!<br><br><b>Work faster!</b>"
"","944","canvas-keyboard-response","69","223953","0.0-1.0-0.34","f","true","40","false","response","true",""
"","null","html-keyboard-response","70","225481","0.0-1.0-1.34","null","","","","","","Correct!"
"","2306","canvas-keyboard-response","71","228303","0.0-1.0-0.35","j","false","30","true","response","true",""
"","null","html-keyboard-response","72","229805","0.0-1.0-1.35","null","","","","","","Correct!<br><br><b>Work faster!</b>"
"","1169","canvas-keyboard-response","73","231492","0.0-1.0-0.36","f","true","20","false","response","true",""
"","null","html-keyboard-response","74","232995","0.0-1.0-1.36","null","","","","","","Correct!"
"","1426","canvas-keyboard-response","75","234935","0.0-1.0-0.37","j","false","20","true","response","true",""
"","null","html-keyboard-response","76","236446","0.0-1.0-1.37","null","","","","","","Correct!"
"","1338","canvas-keyboard-response","77","238303","0.0-1.0-0.38","f","true","10","true","response","true",""
"","null","html-keyboard-response","78","239821","0.0-1.0-1.38","null","","","","","","Correct!"
"","2179","canvas-keyboard-response","79","242513","0.0-1.0-0.39","j","false","40","false","response","true",""
"","null","html-keyboard-response","80","244025","0.0-1.0-1.39","null","","","","","","Correct!<br><br><b>Work faster!</b>"
"","2549","canvas-keyboard-response","81","247090","0.0-1.0-0.40","f","true","30","true","response","true",""
"","null","html-keyboard-response","82","248611","0.0-1.0-1.40","null","","","","","","Correct!<br><br><b>Work faster!</b>"
"","2026","canvas-keyboard-response","83","251142","0.0-1.0-0.41","f","true","20","true","response","true",""
"","null","html-keyboard-response","84","252660","0.0-1.0-1.41","null","","","","","","Correct!<br><br><b>Work faster!</b>"
"","1328","canvas-keyboard-response","85","254505","0.0-1.0-0.42","f","true","10","false","response","true",""
"","null","html-keyboard-response","86","256020","0.0-1.0-1.42","null","","","","","","Correct!"
"","3041","canvas-keyboard-response","87","259585","0.0-1.0-0.43","f","true","30","true","response","true",""
"","null","html-keyboard-response","88","261113","0.0-1.0-1.43","null","","","","","","Correct!<br><br><b>Work faster!</b>"
"","2415","canvas-keyboard-response","89","264046","0.0-1.0-0.44","j","false","40","false","response","true",""
"","null","html-keyboard-response","90","265567","0.0-1.0-1.44","null","","","","","","Correct!<br><br><b>Work faster!</b>"
"","1844","canvas-keyboard-response","91","267928","0.0-1.0-0.45","f","false","30","true","response","false",""
"","null","html-keyboard-response","92","269442","0.0-1.0-1.45","null","","","","","","Wrong"
"","828","canvas-keyboard-response","93","270774","0.0-1.0-0.46","f","true","30","false","response","true",""
"","null","html-keyboard-response","94","272285","0.0-1.0-1.46","null","","","","","","Correct!"
"","2568","canvas-keyboard-response","95","275357","0.0-1.0-0.47","f","true","30","true","response","true",""
"","null","html-keyboard-response","96","276878","0.0-1.0-1.47","null","","","","","","Correct!<br><br><b>Work faster!</b>"
"","848","canvas-keyboard-response","97","278246","0.0-1.0-0.48","f","true","30","false","response","true",""
"","null","html-keyboard-response","98","279757","0.0-1.0-1.48","null","","","","","","Correct!"
"","2824","canvas-keyboard-response","99","283084","0.0-1.0-0.49","j","false","30","true","response","true",""
"","null","html-keyboard-response","100","284607","0.0-1.0-1.49","null","","","","","","Correct!<br><br><b>Work faster!</b>"
"","2136","canvas-keyboard-response","101","287251","0.0-1.0-0.50","j","false","10","false","response","true",""
"","null","html-keyboard-response","102","288769","0.0-1.0-1.50","null","","","","","","Correct!<br><br><b>Work faster!</b>"
"","2235","canvas-keyboard-response","103","291514","0.0-1.0-0.51","j","false","40","false","response","true",""
"","null","html-keyboard-response","104","293022","0.0-1.0-1.51","null","","","","","","Correct!<br><br><b>Work faster!</b>"
"","1866","canvas-keyboard-response","105","295389","0.0-1.0-0.52","j","false","40","false","response","true",""
"","null","html-keyboard-response","106","296896","0.0-1.0-1.52","null","","","","","","Correct!"
"","2854","canvas-keyboard-response","107","300264","0.0-1.0-0.53","f","true","40","true","response","true",""
"","null","html-keyboard-response","108","301769","0.0-1.0-1.53","null","","","","","","Correct!<br><br><b>Work faster!</b>"
"","2151","canvas-keyboard-response","109","304423","0.0-1.0-0.54","j","false","30","true","response","true",""
"","null","html-keyboard-response","110","305926","0.0-1.0-1.54","null","","","","","","Correct!<br><br><b>Work faster!</b>"
"","3210","canvas-keyboard-response","111","309649","0.0-1.0-0.55","j","false","40","false","response","true",""
"","null","html-keyboard-response","112","311165","0.0-1.0-1.55","null","","","","","","Correct!<br><br><b>Work faster!</b>"
"","3042","canvas-keyboard-response","113","314709","0.0-1.0-0.56","j","false","40","true","response","true",""
"","null","html-keyboard-response","114","316213","0.0-1.0-1.56","null","","","","","","Correct!<br><br><b>Work faster!</b>"
"","1552","canvas-keyboard-response","115","318280","0.0-1.0-0.57","f","true","20","true","response","true",""
"","null","html-keyboard-response","116","319804","0.0-1.0-1.57","null","","","","","","Correct!"
"","1868","canvas-keyboard-response","117","322175","0.0-1.0-0.58","j","false","10","false","response","true",""
"","null","html-keyboard-response","118","323697","0.0-1.0-1.58","null","","","","","","Correct!"
"","1186","canvas-keyboard-response","119","325401","0.0-1.0-0.59","j","false","10","false","response","true",""
"","null","html-keyboard-response","120","326931","0.0-1.0-1.59","null","","","","","","Correct!"
"","731","canvas-keyboard-response","121","328179","0.0-1.0-0.60","f","true","10","false","response","true",""
"","null","html-keyboard-response","122","329682","0.0-1.0-1.60","null","","","","","","Correct!"
"","910","canvas-keyboard-response","123","331109","0.0-1.0-0.61","f","true","20","false","response","true",""
"","null","html-keyboard-response","124","332619","0.0-1.0-1.61","null","","","","","","Correct!"
"","2159","canvas-keyboard-response","125","335295","0.0-1.0-0.62","j","false","30","false","response","true",""
"","null","html-keyboard-response","126","336821","0.0-1.0-1.62","null","","","","","","Correct!<br><br><b>Work faster!</b>"
"","1985","canvas-keyboard-response","127","339316","0.0-1.0-0.63","f","true","10","false","response","true",""
"","null","html-keyboard-response","128","340832","0.0-1.0-1.63","null","","","","","","Correct!"
"","1110","canvas-keyboard-response","129","342451","0.0-1.0-0.64","f","true","20","false","response","true",""
"","null","html-keyboard-response","130","343960","0.0-1.0-1.64","null","","","","","","Correct!"
"","986","canvas-keyboard-response","131","345450","0.0-1.0-0.65","f","true","40","true","response","true",""
"","null","html-keyboard-response","132","346963","0.0-1.0-1.65","null","","","","","","Correct!"
"","626","canvas-keyboard-response","133","348100","0.0-1.0-0.66","f","true","20","false","response","true",""
"","null","html-keyboard-response","134","349604","0.0-1.0-1.66","null","","","","","","Correct!"
"","1294","canvas-keyboard-response","135","351412","0.0-1.0-0.67","j","false","10","true","response","true",""
"","null","html-keyboard-response","136","352930","0.0-1.0-1.67","null","","","","","","Correct!"
"","1788","canvas-keyboard-response","137","355220","0.0-1.0-0.68","j","false","40","false","response","true",""
"","null","html-keyboard-response","138","356743","0.0-1.0-1.68","null","","","","","","Correct!"
"","702","canvas-keyboard-response","139","357950","0.0-1.0-0.69","f","true","10","false","response","true",""
"","null","html-keyboard-response","140","359477","0.0-1.0-1.69","null","","","","","","Correct!"
"","1572","canvas-keyboard-response","141","361553","0.0-1.0-0.70","f","true","10","true","response","true",""
"","null","html-keyboard-response","142","363057","0.0-1.0-1.70","null","","","","","","Correct!"
"","839","canvas-keyboard-response","143","364411","0.0-1.0-0.71","f","true","10","true","response","true",""
"","null","html-keyboard-response","144","365915","0.0-1.0-1.71","null","","","","","","Correct!"
"","883","canvas-keyboard-response","145","367301","0.0-1.0-0.72","f","true","10","false","response","true",""
"","null","html-keyboard-response","146","368822","0.0-1.0-1.72","null","","","","","","Correct!"
"","2481","canvas-keyboard-response","147","371812","0.0-1.0-0.73","j","false","40","false","response","true",""
"","null","html-keyboard-response","148","373328","0.0-1.0-1.73","null","","","","","","Correct!<br><br><b>Work faster!</b>"
"","1223","canvas-keyboard-response","149","375056","0.0-1.0-0.74","f","true","10","true","response","true",""
"","null","html-keyboard-response","150","376573","0.0-1.0-1.74","null","","","","","","Correct!"
"","677","canvas-keyboard-response","151","377756","0.0-1.0-0.75","f","true","10","false","response","true",""
"","null","html-keyboard-response","152","379280","0.0-1.0-1.75","null","","","","","","Correct!"
"","817","canvas-keyboard-response","153","380599","0.0-1.0-0.76","f","true","20","false","response","true",""
"","null","html-keyboard-response","154","382124","0.0-1.0-1.76","null","","","","","","Correct!"
"","722","canvas-keyboard-response","155","383349","0.0-1.0-0.77","j","false","10","false","response","true",""
"","null","html-keyboard-response","156","384876","0.0-1.0-1.77","null","","","","","","Correct!"
"","2681","canvas-keyboard-response","157","388072","0.0-1.0-0.78","f","true","40","true","response","true",""
"","null","html-keyboard-response","158","389580","0.0-1.0-1.78","null","","","","","","Correct!<br><br><b>Work faster!</b>"
"","2794","canvas-keyboard-response","159","392890","0.0-1.0-0.79","j","false","30","true","response","true",""
"","null","html-keyboard-response","160","394413","0.0-1.0-1.79","null","","","","","","Correct!<br><br><b>Work faster!</b>"
"","1783","canvas-keyboard-response","161","396707","0.0-1.0-0.80","j","false","10","false","response","true",""
"","null","html-keyboard-response","162","398209","0.0-1.0-1.80","null","","","","","","Correct!"
"","1758","canvas-keyboard-response","163","400478","0.0-1.0-0.81","j","false","20","false","response","true",""
"","null","html-keyboard-response","164","401985","0.0-1.0-1.81","null","","","","","","Correct!"
"","1566","canvas-keyboard-response","165","404066","0.0-1.0-0.82","j","false","20","false","response","true",""
"","null","html-keyboard-response","166","405578","0.0-1.0-1.82","null","","","","","","Correct!"
"","1948","canvas-keyboard-response","167","408032","0.0-1.0-0.83","f","true","20","true","response","true",""
"","null","html-keyboard-response","168","409564","0.0-1.0-1.83","null","","","","","","Correct!"
"","3134","canvas-keyboard-response","169","413214","0.0-1.0-0.84","f","true","20","false","response","true",""
"","null","html-keyboard-response","170","414723","0.0-1.0-1.84","null","","","","","","Correct!<br><br><b>Work faster!</b>"
"","1167","canvas-keyboard-response","171","416404","0.0-1.0-0.85","j","false","10","false","response","true",""
"","null","html-keyboard-response","172","417921","0.0-1.0-1.85","null","","","","","","Correct!"
"","1024","canvas-keyboard-response","173","419465","0.0-1.0-0.86","j","false","10","false","response","true",""
"","null","html-keyboard-response","174","420985","0.0-1.0-1.86","null","","","","","","Correct!"
"","1096","canvas-keyboard-response","175","422591","0.0-1.0-0.87","j","false","10","true","response","true",""
"","null","html-keyboard-response","176","424096","0.0-1.0-1.87","null","","","","","","Correct!"
"","1312","canvas-keyboard-response","177","425925","0.0-1.0-0.88","f","true","20","true","response","true",""
"","null","html-keyboard-response","178","427439","0.0-1.0-1.88","null","","","","","","Correct!"
"","1258","canvas-keyboard-response","179","429214","0.0-1.0-0.89","j","false","40","false","response","true",""
"","null","html-keyboard-response","180","430723","0.0-1.0-1.89","null","","","","","","Correct!"
"","789","canvas-keyboard-response","181","432031","0.0-1.0-0.90","f","true","10","true","response","true",""
"","null","html-keyboard-response","182","433554","0.0-1.0-1.90","null","","","","","","Correct!"
"","1608","canvas-keyboard-response","183","435663","0.0-1.0-0.91","f","true","20","true","response","true",""
"","null","html-keyboard-response","184","437194","0.0-1.0-1.91","null","","","","","","Correct!"
"","1395","canvas-keyboard-response","185","439106","0.0-1.0-0.92","j","false","20","true","response","true",""
"","null","html-keyboard-response","186","440618","0.0-1.0-1.92","null","","","","","","Correct!"
"","2349","canvas-keyboard-response","187","443481","0.0-1.0-0.93","j","false","30","false","response","true",""
"","null","html-keyboard-response","188","445005","0.0-1.0-1.93","null","","","","","","Correct!<br><br><b>Work faster!</b>"
"","1310","canvas-keyboard-response","189","446820","0.0-1.0-0.94","f","true","20","true","response","true",""
"","null","html-keyboard-response","190","448351","0.0-1.0-1.94","null","","","","","","Correct!"
"","2171","canvas-keyboard-response","191","451040","0.0-1.0-0.95","f","true","30","true","response","true",""
"","null","html-keyboard-response","192","452553","0.0-1.0-1.95","null","","","","","","Correct!<br><br><b>Work faster!</b>"
"","1523","canvas-keyboard-response","193","454603","0.0-1.0-0.96","f","true","10","true","response","true",""
"","null","html-keyboard-response","194","456118","0.0-1.0-1.96","null","","","","","","Correct!"
"","2491","canvas-keyboard-response","195","459123","0.0-1.0-0.97","f","true","40","true","response","true",""
"","null","html-keyboard-response","196","460646","0.0-1.0-1.97","null","","","","","","Correct!<br><br><b>Work faster!</b>"
"","1565","canvas-keyboard-response","197","462714","0.0-1.0-0.98","f","true","30","true","response","true",""
"","null","html-keyboard-response","198","464224","0.0-1.0-1.98","null","","","","","","Correct!"
"","2216","canvas-keyboard-response","199","466943","0.0-1.0-0.99","j","false","20","false","response","true",""
"","null","html-keyboard-response","200","468446","0.0-1.0-1.99","null","","","","","","Correct!<br><br><b>Work faster!</b>"
"","820","canvas-keyboard-response","201","469780","0.0-1.0-0.100","f","true","30","false","response","true",""
"","null","html-keyboard-response","202","471302","0.0-1.0-1.100","null","","","","","","Correct!"
"","2495","canvas-keyboard-response","203","474302","0.0-1.0-0.101","f","true","30","true","response","true",""
"","null","html-keyboard-response","204","475818","0.0-1.0-1.101","null","","","","","","Correct!<br><br><b>Work faster!</b>"
"","875","canvas-keyboard-response","205","477209","0.0-1.0-0.102","f","true","30","false","response","true",""
"","null","html-keyboard-response","206","478740","0.0-1.0-1.102","null","","","","","","Correct!"
"","798","canvas-keyboard-response","207","480044","0.0-1.0-0.103","f","true","40","false","response","true",""
"","null","html-keyboard-response","208","481553","0.0-1.0-1.103","null","","","","","","Correct!"
"","1127","canvas-keyboard-response","209","483187","0.0-1.0-0.104","f","true","10","true","response","true",""
"","null","html-keyboard-response","210","484698","0.0-1.0-1.104","null","","","","","","Correct!"
"","1766","canvas-keyboard-response","211","486978","0.0-1.0-0.105","j","false","20","false","response","true",""
"","null","html-keyboard-response","212","488491","0.0-1.0-1.105","null","","","","","","Correct!"
"","3781","canvas-keyboard-response","213","492791","0.0-1.0-0.106","f","true","40","true","response","true",""
"","null","html-keyboard-response","214","494310","0.0-1.0-1.106","null","","","","","","Correct!<br><br><b>Work faster!</b>"
"","1230","canvas-keyboard-response","215","496056","0.0-1.0-0.107","f","true","30","false","response","true",""
"","null","html-keyboard-response","216","497572","0.0-1.0-1.107","null","","","","","","Correct!"
"","2349","canvas-keyboard-response","217","500438","0.0-1.0-0.108","j","false","20","true","response","true",""
"","null","html-keyboard-response","218","501960","0.0-1.0-1.108","null","","","","","","Correct!<br><br><b>Work faster!</b>"
"","1269","canvas-keyboard-response","219","503747","0.0-1.0-0.109","f","true","30","true","response","true",""
"","null","html-keyboard-response","220","505258","0.0-1.0-1.109","null","","","","","","Correct!"
"","1703","canvas-keyboard-response","221","507463","0.0-1.0-0.110","f","true","10","true","response","true",""
"","null","html-keyboard-response","222","508992","0.0-1.0-1.110","null","","","","","","Correct!"
"","1815","canvas-keyboard-response","223","511327","0.0-1.0-0.111","f","true","30","true","response","true",""
"","null","html-keyboard-response","224","512851","0.0-1.0-1.111","null","","","","","","Correct!"
"","2930","canvas-keyboard-response","225","516298","0.0-1.0-0.112","j","false","40","false","response","true",""
"","null","html-keyboard-response","226","517810","0.0-1.0-1.112","null","","","","","","Correct!<br><br><b>Work faster!</b>"
"","1780","canvas-keyboard-response","227","520102","0.0-1.0-0.113","f","true","40","true","response","true",""
"","null","html-keyboard-response","228","521632","0.0-1.0-1.113","null","","","","","","Correct!"
"","4928","canvas-keyboard-response","229","527077","0.0-1.0-0.114","f","true","40","false","response","true",""
"","null","html-keyboard-response","230","528588","0.0-1.0-1.114","null","","","","","","Correct!<br><br><b>Work faster!</b>"
"","3141","canvas-keyboard-response","231","532233","0.0-1.0-0.115","f","true","40","true","response","true",""
"","null","html-keyboard-response","232","533758","0.0-1.0-1.115","null","","","","","","Correct!<br><br><b>Work faster!</b>"
"","1548","canvas-keyboard-response","233","535810","0.0-1.0-0.116","j","false","10","false","response","true",""
"","null","html-keyboard-response","234","537335","0.0-1.0-1.116","null","","","","","","Correct!"
"","874","canvas-keyboard-response","235","538728","0.0-1.0-0.117","f","true","40","false","response","true",""
"","null","html-keyboard-response","236","540243","0.0-1.0-1.117","null","","","","","","Correct!"
"","1916","canvas-keyboard-response","237","542676","0.0-1.0-0.118","j","false","30","false","response","true",""
"","null","html-keyboard-response","238","544196","0.0-1.0-1.118","null","","","","","","Correct!"
"","622","canvas-keyboard-response","239","545334","0.0-1.0-0.119","f","true","40","false","response","true",""
"","null","html-keyboard-response","240","546852","0.0-1.0-1.119","null","","","","","","Correct!"
"","638","canvas-keyboard-response","241","548008","0.0-1.0-0.120","f","true","30","false","response","true",""
"","null","html-keyboard-response","242","549524","0.0-1.0-1.120","null","","","","","","Correct!"
"","2704","canvas-keyboard-response","243","552745","0.0-1.0-0.121","j","false","30","true","response","true",""
"","null","html-keyboard-response","244","554274","0.0-1.0-1.121","null","","","","","","Correct!<br><br><b>Work faster!</b>"
"","923","canvas-keyboard-response","245","555700","0.0-1.0-0.122","j","false","10","true","response","true",""
"","null","html-keyboard-response","246","557228","0.0-1.0-1.122","null","","","","","","Correct!"
"","1429","canvas-keyboard-response","247","559160","0.0-1.0-0.123","f","true","10","false","response","true",""
"","null","html-keyboard-response","248","560683","0.0-1.0-1.123","null","","","","","","Correct!"
"","647","canvas-keyboard-response","249","561846","0.0-1.0-0.124","f","true","20","true","response","true",""
"","null","html-keyboard-response","250","563354","0.0-1.0-1.124","null","","","","","","Correct!"
"","1173","canvas-keyboard-response","251","565042","0.0-1.0-0.125","j","false","10","true","response","true",""
"","null","html-keyboard-response","252","566570","0.0-1.0-1.125","null","","","","","","Correct!"
"","1742","canvas-keyboard-response","253","568826","0.0-1.0-0.126","j","false","30","false","response","true",""
"","null","html-keyboard-response","254","570352","0.0-1.0-1.126","null","","","","","","Correct!"
"","2212","canvas-keyboard-response","255","573082","0.0-1.0-0.127","j","false","20","false","response","true",""
"","null","html-keyboard-response","256","574591","0.0-1.0-1.127","null","","","","","","Correct!<br><br><b>Work faster!</b>"
"","1283","canvas-keyboard-response","257","576388","0.0-1.0-0.128","j","false","10","false","response","true",""
"","null","html-keyboard-response","258","577915","0.0-1.0-1.128","null","","","","","","Correct!"
"","1660","canvas-keyboard-response","259","580093","0.0-1.0-0.129","j","false","20","true","response","true",""
"","null","html-keyboard-response","260","581620","0.0-1.0-1.129","null","","","","","","Correct!"
"","2885","canvas-keyboard-response","261","585019","0.0-1.0-0.130","j","false","40","true","response","true",""
"","null","html-keyboard-response","262","586526","0.0-1.0-1.130","null","","","","","","Correct!<br><br><b>Work faster!</b>"
"","1203","canvas-keyboard-response","263","588244","0.0-1.0-0.131","j","false","10","true","response","true",""
"","null","html-keyboard-response","264","589758","0.0-1.0-1.131","null","","","","","","Correct!"
"","1672","canvas-keyboard-response","265","591934","0.0-1.0-0.132","j","false","40","false","response","true",""
"","null","html-keyboard-response","266","593451","0.0-1.0-1.132","null","","","","","","Correct!"
"","1135","canvas-keyboard-response","267","595099","0.0-1.0-0.133","f","true","30","true","response","true",""
"","null","html-keyboard-response","268","596604","0.0-1.0-1.133","null","","","","","","Correct!"
"","1219","canvas-keyboard-response","269","598339","0.0-1.0-0.134","j","false","10","true","response","true",""
"","null","html-keyboard-response","270","599856","0.0-1.0-1.134","null","","","","","","Correct!"
"","3345","canvas-keyboard-response","271","603713","0.0-1.0-0.135","j","false","40","true","response","true",""
"","null","html-keyboard-response","272","605229","0.0-1.0-1.135","null","","","","","","Correct!<br><br><b>Work faster!</b>"
"","2462","canvas-keyboard-response","273","608207","0.0-1.0-0.136","f","true","20","true","response","true",""
"","null","html-keyboard-response","274","609712","0.0-1.0-1.136","null","","","","","","Correct!<br><br><b>Work faster!</b>"
"","2186","canvas-keyboard-response","275","612415","0.0-1.0-0.137","j","false","20","true","response","true",""
"","null","html-keyboard-response","276","613930","0.0-1.0-1.137","null","","","","","","Correct!<br><br><b>Work faster!</b>"
"","827","canvas-keyboard-response","277","615262","0.0-1.0-0.138","f","true","40","true","response","true",""
"","null","html-keyboard-response","278","616790","0.0-1.0-1.138","null","","","","","","Correct!"
"","982","canvas-keyboard-response","279","618295","0.0-1.0-0.139","f","true","40","false","response","true",""
"","null","html-keyboard-response","280","619811","0.0-1.0-1.139","null","","","","","","Correct!"
"","624","canvas-keyboard-response","281","620949","0.0-1.0-0.140","j","false","10","true","response","true",""
"","null","html-keyboard-response","282","622478","0.0-1.0-1.140","null","","","","","","Correct!"
"","1851","canvas-keyboard-response","283","624845","0.0-1.0-0.141","f","true","30","true","response","true",""
"","null","html-keyboard-response","284","626367","0.0-1.0-1.141","null","","","","","","Correct!"
"","1714","canvas-keyboard-response","285","628595","0.0-1.0-0.142","f","true","30","true","response","true",""
"","null","html-keyboard-response","286","630118","0.0-1.0-1.142","null","","","","","","Correct!"
"","635","canvas-keyboard-response","287","631271","0.0-1.0-0.143","f","true","20","false","response","true",""
"","null","html-keyboard-response","288","632791","0.0-1.0-1.143","null","","","","","","Correct!"
"","1007","canvas-keyboard-response","289","634315","0.0-1.0-0.144","f","true","10","true","response","true",""
"","null","html-keyboard-response","290","635837","0.0-1.0-1.144","null","","","","","","Correct!"
"","2469","canvas-keyboard-response","291","638823","0.0-1.0-0.145","j","false","40","true","response","true",""
"","null","html-keyboard-response","292","640351","0.0-1.0-1.145","null","","","","","","Correct!<br><br><b>Work faster!</b>"
"","1700","canvas-keyboard-response","293","642553","0.0-1.0-0.146","j","false","30","false","response","true",""
"","null","html-keyboard-response","294","644057","0.0-1.0-1.146","null","","","","","","Correct!"
"","1875","canvas-keyboard-response","295","646449","0.0-1.0-0.147","j","false","30","false","response","true",""
"","null","html-keyboard-response","296","647962","0.0-1.0-1.147","null","","","","","","Correct!"
"","625","canvas-keyboard-response","297","649098","0.0-1.0-0.148","f","true","40","false","response","true",""
"","null","html-keyboard-response","298","650605","0.0-1.0-1.148","null","","","","","","Correct!"
"","619","canvas-keyboard-response","299","651739","0.0-1.0-0.149","f","true","10","false","response","true",""
"","null","html-keyboard-response","300","653259","0.0-1.0-1.149","null","","","","","","Correct!"
"","1204","canvas-keyboard-response","301","654966","0.0-1.0-0.150","j","false","20","false","response","true",""
"","null","html-keyboard-response","302","656501","0.0-1.0-1.150","null","","","","","","Correct!"
"","1680","canvas-keyboard-response","303","658690","0.0-1.0-0.151","f","true","20","false","response","true",""
"","null","html-keyboard-response","304","660201","0.0-1.0-1.151","null","","","","","","Correct!"
"","2957","canvas-keyboard-response","305","663671","0.0-1.0-0.152","j","false","40","true","response","true",""
"","null","html-keyboard-response","306","665197","0.0-1.0-1.152","null","","","","","","Correct!<br><br><b>Work faster!</b>"
"","1549","canvas-keyboard-response","307","667263","0.0-1.0-0.153","f","true","20","true","response","true",""
"","null","html-keyboard-response","308","668775","0.0-1.0-1.153","null","","","","","","Correct!"
"","629","canvas-keyboard-response","309","669921","0.0-1.0-0.154","f","true","40","false","response","true",""
"","null","html-keyboard-response","310","671441","0.0-1.0-1.154","null","","","","","","Correct!"
"","818","canvas-keyboard-response","311","672767","0.0-1.0-0.155","f","true","10","true","response","true",""
"","null","html-keyboard-response","312","674281","0.0-1.0-1.155","null","","","","","","Correct!"
"","2477","canvas-keyboard-response","313","677269","0.0-1.0-0.156","j","false","30","true","response","true",""
"","null","html-keyboard-response","314","678789","0.0-1.0-1.156","null","","","","","","Correct!<br><br><b>Work faster!</b>"
"","1055","canvas-keyboard-response","315","680348","0.0-1.0-0.157","j","false","10","true","response","true",""
"","null","html-keyboard-response","316","681852","0.0-1.0-1.157","null","","","","","","Correct!"
"","1276","canvas-keyboard-response","317","683649","0.0-1.0-0.158","j","false","10","false","response","true",""
"","null","html-keyboard-response","318","685180","0.0-1.0-1.158","null","","","","","","Correct!"
"","1587","canvas-keyboard-response","319","687285","0.0-1.0-0.159","j","false","30","true","response","true",""
"","null","html-keyboard-response","320","688805","0.0-1.0-1.159","null","","","","","","Correct!"
"","536","canvas-keyboard-response","321","689845","0.0-1.0-0.160","f","true","30","false","response","true",""
"","null","html-keyboard-response","322","691354","0.0-1.0-1.160","null","","","","","","Correct!"
"","708","canvas-keyboard-response","323","692578","0.0-1.0-0.161","f","true","30","true","response","true",""
"","null","html-keyboard-response","324","694089","0.0-1.0-1.161","null","","","","","","Correct!"
"","4449","canvas-keyboard-response","325","699053","0.0-1.0-0.162","j","false","30","true","response","true",""
"","null","html-keyboard-response","326","700581","0.0-1.0-1.162","null","","","","","","Correct!<br><br><b>Work faster!</b>"
"","2126","canvas-keyboard-response","327","703213","0.0-1.0-0.163","j","false","10","false","response","true",""
"","null","html-keyboard-response","328","704731","0.0-1.0-1.163","null","","","","","","Correct!<br><br><b>Work faster!</b>"
"","1633","canvas-keyboard-response","329","706879","0.0-1.0-0.164","j","false","20","false","response","true",""
"","null","html-keyboard-response","330","708383","0.0-1.0-1.164","null","","","","","","Correct!"
"","573","canvas-keyboard-response","331","709466","0.0-1.0-0.165","f","true","10","false","response","true",""
"","null","html-keyboard-response","332","710993","0.0-1.0-1.165","null","","","","","","Correct!"
"","827","canvas-keyboard-response","333","712337","0.0-1.0-0.166","f","true","10","false","response","true",""
"","null","html-keyboard-response","334","713854","0.0-1.0-1.166","null","","","","","","Correct!"
"","813","canvas-keyboard-response","335","715183","0.0-1.0-0.167","f","true","10","true","response","true",""
"","null","html-keyboard-response","336","716701","0.0-1.0-1.167","null","","","","","","Correct!"
"","1251","canvas-keyboard-response","337","718465","0.0-1.0-0.168","j","false","30","false","response","true",""
"","null","html-keyboard-response","338","719993","0.0-1.0-1.168","null","","","","","","Correct!"
"","2695","canvas-keyboard-response","339","723194","0.0-1.0-0.169","f","true","40","true","response","true",""
"","null","html-keyboard-response","340","724699","0.0-1.0-1.169","null","","","","","","Correct!<br><br><b>Work faster!</b>"
"","1519","canvas-keyboard-response","341","726720","0.0-1.0-0.170","j","false","20","false","response","true",""
"","null","html-keyboard-response","342","728228","0.0-1.0-1.170","null","","","","","","Correct!"
"","2054","canvas-keyboard-response","343","730798","0.0-1.0-0.171","j","false","40","false","response","true",""
"","null","html-keyboard-response","344","732311","0.0-1.0-1.171","null","","","","","","Correct!<br><br><b>Work faster!</b>"
"","718","canvas-keyboard-response","345","733542","0.0-1.0-0.172","f","true","10","false","response","true",""
"","null","html-keyboard-response","346","735070","0.0-1.0-1.172","null","","","","","","Correct!"
"","645","canvas-keyboard-response","347","736218","0.0-1.0-0.173","f","true","40","false","response","true",""
"","null","html-keyboard-response","348","737727","0.0-1.0-1.173","null","","","","","","Correct!"
"","701","canvas-keyboard-response","349","738934","0.0-1.0-0.174","f","true","10","false","response","true",""
"","null","html-keyboard-response","350","740461","0.0-1.0-1.174","null","","","","","","Correct!"
"","910","canvas-keyboard-response","351","741888","0.0-1.0-0.175","j","false","40","false","response","true",""
"","null","html-keyboard-response","352","743416","0.0-1.0-1.175","null","","","","","","Correct!"
"","3851","canvas-keyboard-response","353","747783","0.0-1.0-0.176","j","false","30","true","response","true",""
"","null","html-keyboard-response","354","749290","0.0-1.0-1.176","null","","","","","","Correct!<br><br><b>Work faster!</b>"
"","1181","canvas-keyboard-response","355","750973","0.0-1.0-0.177","j","false","30","false","response","true",""
"","null","html-keyboard-response","356","752493","0.0-1.0-1.177","null","","","","","","Correct!"
"","2126","canvas-keyboard-response","357","755122","0.0-1.0-0.178","f","true","40","true","response","true",""
"","null","html-keyboard-response","358","756634","0.0-1.0-1.178","null","","","","","","Correct!<br><br><b>Work faster!</b>"
"","1228","canvas-keyboard-response","359","758378","0.0-1.0-0.179","f","true","20","false","response","true",""
"","null","html-keyboard-response","360","759901","0.0-1.0-1.179","null","","","","","","Correct!"
"","3744","canvas-keyboard-response","361","764159","0.0-1.0-0.180","f","true","40","true","response","true",""
"","null","html-keyboard-response","362","765681","0.0-1.0-1.180","null","","","","","","Correct!<br><br><b>Work faster!</b>"
"","1167","canvas-keyboard-response","363","767363","0.0-1.0-0.181","f","true","10","true","response","true",""
"","null","html-keyboard-response","364","768870","0.0-1.0-1.181","null","","","","","","Correct!"
"","2773","canvas-keyboard-response","365","772157","0.0-1.0-0.182","j","false","40","true","response","true",""
"","null","html-keyboard-response","366","773675","0.0-1.0-1.182","null","","","","","","Correct!<br><br><b>Work faster!</b>"
"","510","canvas-keyboard-response","367","774693","0.0-1.0-0.183","f","true","30","false","response","true",""
"","null","html-keyboard-response","368","776212","0.0-1.0-1.183","null","","","","","","Correct!"
"","626","canvas-keyboard-response","369","777351","0.0-1.0-0.184","f","true","10","false","response","true",""
"","null","html-keyboard-response","370","778853","0.0-1.0-1.184","null","","","","","","Correct!"
"","2420","canvas-keyboard-response","371","781789","0.0-1.0-0.185","j","false","40","false","response","true",""
"","null","html-keyboard-response","372","783305","0.0-1.0-1.185","null","","","","","","Correct!<br><br><b>Work faster!</b>"
"","2471","canvas-keyboard-response","373","786280","0.0-1.0-0.186","j","false","30","true","response","true",""
"","null","html-keyboard-response","374","787790","0.0-1.0-1.186","null","","","","","","Correct!<br><br><b>Work faster!</b>"
"","1585","canvas-keyboard-response","375","789897","0.0-1.0-0.187","f","true","30","true","response","true",""
"","null","html-keyboard-response","376","791399","0.0-1.0-1.187","null","","","","","","Correct!"
"","818","canvas-keyboard-response","377","792720","0.0-1.0-0.188","f","true","10","true","response","true",""
"","null","html-keyboard-response","378","794251","0.0-1.0-1.188","null","","","","","","Correct!"
"","1438","canvas-keyboard-response","379","796202","0.0-1.0-0.189","j","false","20","false","response","true",""
"","null","html-keyboard-response","380","797728","0.0-1.0-1.189","null","","","","","","Correct!"
"","1137","canvas-keyboard-response","381","799368","0.0-1.0-0.190","j","false","30","false","response","true",""
"","null","html-keyboard-response","382","800885","0.0-1.0-1.190","null","","","","","","Correct!"
"","1645","canvas-keyboard-response","383","803046","0.0-1.0-0.191","j","false","40","false","response","true",""
"","null","html-keyboard-response","384","804572","0.0-1.0-1.191","null","","","","","","Correct!"
"","3091","canvas-keyboard-response","385","808180","0.0-1.0-0.192","j","false","40","true","response","true",""
"","null","html-keyboard-response","386","809712","0.0-1.0-1.192","null","","","","","","Correct!<br><br><b>Work faster!</b>"
"","1478","canvas-keyboard-response","387","811693","0.0-1.0-0.193","f","true","40","true","response","true",""
"","null","html-keyboard-response","388","813213","0.0-1.0-1.193","null","","","","","","Correct!"
"","706","canvas-keyboard-response","389","814436","0.0-1.0-0.194","f","true","30","false","response","true",""
"","null","html-keyboard-response","390","815951","0.0-1.0-1.194","null","","","","","","Correct!"
"","1449","canvas-keyboard-response","391","817914","0.0-1.0-0.195","f","true","30","false","response","true",""
"","null","html-keyboard-response","392","819416","0.0-1.0-1.195","null","","","","","","Correct!"
"","669","canvas-keyboard-response","393","820602","0.0-1.0-0.196","j","false","10","false","response","true",""
"","null","html-keyboard-response","394","822111","0.0-1.0-1.196","null","","","","","","Correct!"
"","1140","canvas-keyboard-response","395","823760","0.0-1.0-0.197","j","false","10","true","response","true",""
"","null","html-keyboard-response","396","825289","0.0-1.0-1.197","null","","","","","","Correct!"
"","2784","canvas-keyboard-response","397","828577","0.0-1.0-0.198","j","false","30","true","response","true",""
"","null","html-keyboard-response","398","830104","0.0-1.0-1.198","null","","","","","","Correct!<br><br><b>Work faster!</b>"
"","2401","canvas-keyboard-response","399","833021","0.0-1.0-0.199","f","true","30","true","response","true",""
"","null","html-keyboard-response","400","834540","0.0-1.0-1.199","null","","","","","","Correct!<br><br><b>Work faster!</b>"
"","1221","canvas-keyboard-response","401","836264","0.0-1.0-0.200","j","false","30","false","response","true",""
"","null","html-keyboard-response","402","837790","0.0-1.0-1.200","null","","","","","","Correct!"
"","2439","canvas-keyboard-response","403","840732","0.0-1.0-0.201","j","false","20","true","response","true",""
"","null","html-keyboard-response","404","842251","0.0-1.0-1.201","null","","","","","","Correct!<br><br><b>Work faster!</b>"
"","2411","canvas-keyboard-response","405","845173","0.0-1.0-0.202","j","false","30","false","response","true",""
"","null","html-keyboard-response","406","846683","0.0-1.0-1.202","null","","","","","","Correct!<br><br><b>Work faster!</b>"
"","1138","canvas-keyboard-response","407","848337","0.0-1.0-0.203","j","false","10","true","response","true",""
"","null","html-keyboard-response","408","849855","0.0-1.0-1.203","null","","","","","","Correct!"
"","1078","canvas-keyboard-response","409","851436","0.0-1.0-0.204","f","true","10","true","response","true",""
"","null","html-keyboard-response","410","852962","0.0-1.0-1.204","null","","","","","","Correct!"
"","2238","canvas-keyboard-response","411","855711","0.0-1.0-0.205","j","false","30","true","response","true",""
"","null","html-keyboard-response","412","857228","0.0-1.0-1.205","null","","","","","","Correct!<br><br><b>Work faster!</b>"
"","1610","canvas-keyboard-response","413","859355","0.0-1.0-0.206","j","false","30","true","response","true",""
"","null","html-keyboard-response","414","860870","0.0-1.0-1.206","null","","","","","","Correct!"
"","1648","canvas-keyboard-response","415","863033","0.0-1.0-0.207","j","false","10","false","response","true",""
"","null","html-keyboard-response","416","864541","0.0-1.0-1.207","null","","","","","","Correct!"
"","1631","canvas-keyboard-response","417","866675","0.0-1.0-0.208","j","false","20","false","response","true",""
"","null","html-keyboard-response","418","868180","0.0-1.0-1.208","null","","","","","","Correct!"
"","1319","canvas-keyboard-response","419","870002","0.0-1.0-0.209","j","false","10","true","response","true",""
"","null","html-keyboard-response","420","871524","0.0-1.0-1.209","null","","","","","","Correct!"
"","550","canvas-keyboard-response","421","872590","0.0-1.0-0.210","f","true","10","false","response","true",""
"","null","html-keyboard-response","422","874102","0.0-1.0-1.210","null","","","","","","Correct!"
"","1338","canvas-keyboard-response","423","875950","0.0-1.0-0.211","f","true","20","true","response","true",""
"","null","html-keyboard-response","424","877477","0.0-1.0-1.211","null","","","","","","Correct!"
"","1211","canvas-keyboard-response","425","879193","0.0-1.0-0.212","f","true","40","false","response","true",""
"","null","html-keyboard-response","426","880713","0.0-1.0-1.212","null","","","","","","Correct!"
"","1577","canvas-keyboard-response","427","882804","0.0-1.0-0.213","j","false","20","true","response","true",""
"","null","html-keyboard-response","428","884322","0.0-1.0-1.213","null","","","","","","Correct!"
"","1520","canvas-keyboard-response","429","886358","0.0-1.0-0.214","j","false","10","false","response","true",""
"","null","html-keyboard-response","430","887868","0.0-1.0-1.214","null","","","","","","Correct!"
"","1628","canvas-keyboard-response","431","889999","0.0-1.0-0.215","j","false","30","false","response","true",""
"","null","html-keyboard-response","432","891524","0.0-1.0-1.215","null","","","","","","Correct!"
"","931","canvas-keyboard-response","433","892958","0.0-1.0-0.216","f","true","20","false","response","true",""
"","null","html-keyboard-response","434","894476","0.0-1.0-1.216","null","","","","","","Correct!"
"","1304","canvas-keyboard-response","435","896283","0.0-1.0-0.217","j","false","10","true","response","true",""
"","null","html-keyboard-response","436","897791","0.0-1.0-1.217","null","","","","","","Correct!"
"","877","canvas-keyboard-response","437","899183","0.0-1.0-0.218","j","false","10","false","response","true",""
"","null","html-keyboard-response","438","900711","0.0-1.0-1.218","null","","","","","","Correct!"
"","545","canvas-keyboard-response","439","901758","0.0-1.0-0.219","f","true","10","true","response","true",""
"","null","html-keyboard-response","440","903274","0.0-1.0-1.219","null","","","","","","Correct!"
"","1088","canvas-keyboard-response","441","904879","0.0-1.0-0.220","f","true","10","true","response","true",""
"","null","html-keyboard-response","442","906383","0.0-1.0-1.220","null","","","","","","Correct!"
"","1870","canvas-keyboard-response","443","908757","0.0-1.0-0.221","j","false","40","true","response","true",""
"","null","html-keyboard-response","444","910260","0.0-1.0-1.221","null","","","","","","Correct!"
"","2497","canvas-keyboard-response","445","913273","0.0-1.0-0.222","j","false","30","true","response","true",""
"","null","html-keyboard-response","446","914805","0.0-1.0-1.222","null","","","","","","Correct!<br><br><b>Work faster!</b>"
"","2097","canvas-keyboard-response","447","917400","0.0-1.0-0.223","j","false","20","false","response","true",""
"","756","html-keyboard-response","448","918668","0.0-1.0-1.223","capslock","","","","","","Correct!<br><br><b>Work faster!</b>"
"","808","canvas-keyboard-response","449","919988","0.0-1.0-0.224","j","false","10","true","response","true",""
"","null","html-keyboard-response","450","921505","0.0-1.0-1.224","null","","","","","","Correct!"
"","2037","canvas-keyboard-response","451","924047","0.0-1.0-0.225","j","false","10","true","response","true",""
"","null","html-keyboard-response","452","925569","0.0-1.0-1.225","null","","","","","","Correct!<br><br><b>Work faster!</b>"
"","1076","canvas-keyboard-response","453","927163","0.0-1.0-0.226","f","true","20","false","response","true",""
"","null","html-keyboard-response","454","928680","0.0-1.0-1.226","null","","","","","","Correct!"
"","1242","canvas-keyboard-response","455","930436","0.0-1.0-0.227","j","false","30","false","response","true",""
"","null","html-keyboard-response","456","931948","0.0-1.0-1.227","null","","","","","","Correct!"
"","694","canvas-keyboard-response","457","933157","0.0-1.0-0.228","f","true","40","false","response","true",""
"","null","html-keyboard-response","458","934664","0.0-1.0-1.228","null","","","","","","Correct!"
"","587","canvas-keyboard-response","459","935768","0.0-1.0-0.229","f","true","20","false","response","true",""
"","null","html-keyboard-response","460","937271","0.0-1.0-1.229","null","","","","","","Correct!"
"","532","canvas-keyboard-response","461","938320","0.0-1.0-0.230","f","true","20","false","response","true",""
"","null","html-keyboard-response","462","939850","0.0-1.0-1.230","null","","","","","","Correct!"
"","2862","canvas-keyboard-response","463","943230","0.0-1.0-0.231","f","true","40","true","response","true",""
"","null","html-keyboard-response","464","944740","0.0-1.0-1.231","null","","","","","","Correct!<br><br><b>Work faster!</b>"
"","1324","canvas-keyboard-response","465","946583","0.0-1.0-0.232","j","false","30","false","response","true",""
"","null","html-keyboard-response","466","948107","0.0-1.0-1.232","null","","","","","","Correct!"
"","712","canvas-keyboard-response","467","949329","0.0-1.0-0.233","j","false","10","true","response","true",""
"","null","html-keyboard-response","468","950837","0.0-1.0-1.233","null","","","","","","Correct!"
"","947","canvas-keyboard-response","469","952288","0.0-1.0-0.234","f","true","30","true","response","true",""
"","null","html-keyboard-response","470","953803","0.0-1.0-1.234","null","","","","","","Correct!"
"","1373","canvas-keyboard-response","471","955678","0.0-1.0-0.235","j","false","20","true","response","true",""
"","null","html-keyboard-response","472","957193","0.0-1.0-1.235","null","","","","","","Correct!"
"","647","canvas-keyboard-response","473","958343","0.0-1.0-0.236","f","true","20","false","response","true",""
"","null","html-keyboard-response","474","959865","0.0-1.0-1.236","null","","","","","","Correct!"
"","974","canvas-keyboard-response","475","961354","0.0-1.0-0.237","f","true","10","true","response","true",""
"","null","html-keyboard-response","476","962880","0.0-1.0-1.237","null","","","","","","Correct!"
"","2538","canvas-keyboard-response","477","965922","0.0-1.0-0.238","j","false","20","true","response","true",""
"","null","html-keyboard-response","478","967437","0.0-1.0-1.238","null","","","","","","Correct!<br><br><b>Work faster!</b>"
"","1245","canvas-keyboard-response","479","969192","0.0-1.0-0.239","j","false","10","false","response","true",""
"","null","html-keyboard-response","480","970697","0.0-1.0-1.239","null","","","","","","Correct!"
"","1286","canvas-keyboard-response","481","972496","0.0-1.0-0.240","j","false","20","false","response","true",""
"","null","html-keyboard-response","482","974005","0.0-1.0-1.240","null","","","","","","Correct!"
"","2078","canvas-keyboard-response","483","976587","0.0-1.0-0.241","j","false","20","true","response","true",""
"","null","html-keyboard-response","484","978118","0.0-1.0-1.241","null","","","","","","Correct!<br><br><b>Work faster!</b>"
"","1692","canvas-keyboard-response","485","980315","0.0-1.0-0.242","j","false","30","false","response","true",""
"","null","html-keyboard-response","486","981836","0.0-1.0-1.242","null","","","","","","Correct!"
"","716","canvas-keyboard-response","487","983070","0.0-1.0-0.243","f","true","30","false","response","true",""
"","null","html-keyboard-response","488","984573","0.0-1.0-1.243","null","","","","","","Correct!"
"","877","canvas-keyboard-response","489","985964","0.0-1.0-0.244","j","false","10","true","response","true",""
"","null","html-keyboard-response","490","987492","0.0-1.0-1.244","null","","","","","","Correct!"
"","620","canvas-keyboard-response","491","988622","0.0-1.0-0.245","f","true","20","false","response","true",""
"","null","html-keyboard-response","492","990134","0.0-1.0-1.245","null","","","","","","Correct!"
"","1340","canvas-keyboard-response","493","991990","0.0-1.0-0.246","j","true","20","true","response","false",""
"","null","html-keyboard-response","494","993493","0.0-1.0-1.246","null","","","","","","Wrong"
"","1564","canvas-keyboard-response","495","995561","0.0-1.0-0.247","j","false","40","false","response","true",""
"","null","html-keyboard-response","496","997086","0.0-1.0-1.247","null","","","","","","Correct!"
"","1752","canvas-keyboard-response","497","999342","0.0-1.0-0.248","j","false","20","false","response","true",""
"","null","html-keyboard-response","498","1000854","0.0-1.0-1.248","null","","","","","","Correct!"
"","467","canvas-keyboard-response","499","1001830","0.0-1.0-0.249","f","true","30","false","response","true",""
"","null","html-keyboard-response","500","1003353","0.0-1.0-1.249","null","","","","","","Correct!"
"","605","canvas-keyboard-response","501","1004475","0.0-1.0-0.250","f","true","30","false","response","true",""
"","null","html-keyboard-response","502","1005980","0.0-1.0-1.250","null","","","","","","Correct!"
"","3591","canvas-keyboard-response","503","1010087","0.0-1.0-0.251","j","false","40","true","response","true",""
"","null","html-keyboard-response","504","1011619","0.0-1.0-1.251","null","","","","","","Correct!<br><br><b>Work faster!</b>"
"","697","canvas-keyboard-response","505","1012832","0.0-1.0-0.252","f","true","10","false","response","true",""
"","null","html-keyboard-response","506","1014337","0.0-1.0-1.252","null","","","","","","Correct!"
"","1049","canvas-keyboard-response","507","1015902","0.0-1.0-0.253","j","false","20","true","response","true",""
"","null","html-keyboard-response","508","1017420","0.0-1.0-1.253","null","","","","","","Correct!"
"","702","canvas-keyboard-response","509","1018624","0.0-1.0-0.254","f","true","20","false","response","true",""
"","null","html-keyboard-response","510","1020149","0.0-1.0-1.254","null","","","","","","Correct!"
"","2008","canvas-keyboard-response","511","1022661","0.0-1.0-0.255","j","false","20","true","response","true",""
"","null","html-keyboard-response","512","1024169","0.0-1.0-1.255","null","","","","","","Correct!<br><br><b>Work faster!</b>"
"","533","canvas-keyboard-response","513","1025216","0.0-1.0-0.256","f","true","20","false","response","true",""
"","null","html-keyboard-response","514","1026728","0.0-1.0-1.256","null","","","","","","Correct!"
"","1071","canvas-keyboard-response","515","1028301","0.0-1.0-0.257","j","false","20","false","response","true",""
"","null","html-keyboard-response","516","1029807","0.0-1.0-1.257","null","","","","","","Correct!"
"","611","canvas-keyboard-response","517","1030920","0.0-1.0-0.258","f","true","30","false","response","true",""
"","null","html-keyboard-response","518","1032445","0.0-1.0-1.258","null","","","","","","Correct!"
"","2235","canvas-keyboard-response","519","1035183","0.0-1.0-0.259","j","false","40","true","response","true",""
"","null","html-keyboard-response","520","1036697","0.0-1.0-1.259","null","","","","","","Correct!<br><br><b>Work faster!</b>"
"","800","canvas-keyboard-response","521","1038002","0.0-1.0-0.260","f","true","10","false","response","true",""
"","null","html-keyboard-response","522","1039525","0.0-1.0-1.260","null","","","","","","Correct!"
"","2637","canvas-keyboard-response","523","1042678","0.0-1.0-0.261","f","true","20","true","response","true",""
"","null","html-keyboard-response","524","1044196","0.0-1.0-1.261","null","","","","","","Correct!<br><br><b>Work faster!</b>"
"","3213","canvas-keyboard-response","525","1047912","0.0-1.0-0.262","j","true","40","true","response","false",""
"","null","html-keyboard-response","526","1049415","0.0-1.0-1.262","null","","","","","","Wrong<br><br><b>Work faster!</b>"
"","2422","canvas-keyboard-response","527","1052355","0.0-1.0-0.263","f","true","40","true","response","true",""
"","null","html-keyboard-response","528","1053869","0.0-1.0-1.263","null","","","","","","Correct!<br><br><b>Work faster!</b>"
"","633","canvas-keyboard-response","529","1055017","0.0-1.0-0.264","f","true","10","false","response","true",""
"","null","html-keyboard-response","530","1056523","0.0-1.0-1.264","null","","","","","","Correct!"
"","3933","canvas-keyboard-response","531","1060959","0.0-1.0-0.265","j","false","40","true","response","true",""
"","null","html-keyboard-response","532","1062461","0.0-1.0-1.265","null","","","","","","Correct!<br><br><b>Work faster!</b>"
"","1942","canvas-keyboard-response","533","1064919","0.0-1.0-0.266","j","false","20","false","response","true",""
"","null","html-keyboard-response","534","1066445","0.0-1.0-1.266","null","","","","","","Correct!"
"","2338","canvas-keyboard-response","535","1069303","0.0-1.0-0.267","j","false","30","false","response","true",""
"","null","html-keyboard-response","536","1070810","0.0-1.0-1.267","null","","","","","","Correct!<br><br><b>Work faster!</b>"
"","1873","canvas-keyboard-response","537","1073198","0.0-1.0-0.268","j","false","20","true","response","true",""
"","null","html-keyboard-response","538","1074705","0.0-1.0-1.268","null","","","","","","Correct!"
"","1559","canvas-keyboard-response","539","1076771","0.0-1.0-0.269","f","true","20","true","response","true",""
"","null","html-keyboard-response","540","1078290","0.0-1.0-1.269","null","","","","","","Correct!"
"","2723","canvas-keyboard-response","541","1081529","0.0-1.0-0.270","j","false","40","false","response","true",""
"","null","html-keyboard-response","542","1083056","0.0-1.0-1.270","null","","","","","","Correct!<br><br><b>Work faster!</b>"
"","2174","canvas-keyboard-response","543","1085733","0.0-1.0-0.271","j","false","20","true","response","true",""
"","null","html-keyboard-response","544","1087258","0.0-1.0-1.271","null","","","","","","Correct!<br><br><b>Work faster!</b>"
"","2046","canvas-keyboard-response","545","1089822","0.0-1.0-0.272","j","false","40","true","response","true",""
"","null","html-keyboard-response","546","1091340","0.0-1.0-1.272","null","","","","","","Correct!<br><br><b>Work faster!</b>"
"","963","canvas-keyboard-response","547","1092816","0.0-1.0-0.273","f","true","20","true","response","true",""
"","null","html-keyboard-response","548","1094336","0.0-1.0-1.273","null","","","","","","Correct!"
"","1971","canvas-keyboard-response","549","1096813","0.0-1.0-0.274","j","false","30","false","response","true",""
"","null","html-keyboard-response","550","1098336","0.0-1.0-1.274","null","","","","","","Correct!"
"","634","canvas-keyboard-response","551","1099472","0.0-1.0-0.275","f","true","10","false","response","true",""
"","null","html-keyboard-response","552","1100980","0.0-1.0-1.275","null","","","","","","Correct!"
"","594","canvas-keyboard-response","553","1102077","0.0-1.0-0.276","f","true","30","false","response","true",""
"","null","html-keyboard-response","554","1103602","0.0-1.0-1.276","null","","","","","","Correct!"
"","590","canvas-keyboard-response","555","1104695","0.0-1.0-0.277","f","true","40","false","response","true",""
"","null","html-keyboard-response","556","1106211","0.0-1.0-1.277","null","","","","","","Correct!"
"","665","canvas-keyboard-response","557","1107379","0.0-1.0-0.278","f","true","20","true","response","true",""
"","null","html-keyboard-response","558","1108900","0.0-1.0-1.278","null","","","","","","Correct!"
"","1898","canvas-keyboard-response","559","1111313","0.0-1.0-0.279","j","false","20","true","response","true",""
"","null","html-keyboard-response","560","1112840","0.0-1.0-1.279","null","","","","","","Correct!"
"","2384","canvas-keyboard-response","561","1115741","0.0-1.0-0.280","j","false","20","false","response","true",""
"","null","html-keyboard-response","562","1117259","0.0-1.0-1.280","null","","","","","","Correct!<br><br><b>Work faster!</b>"
"","2309","canvas-keyboard-response","563","1120085","0.0-1.0-0.281","j","false","40","true","response","true",""
"","null","html-keyboard-response","564","1121602","0.0-1.0-1.281","null","","","","","","Correct!<br><br><b>Work faster!</b>"
"","996","canvas-keyboard-response","565","1123100","0.0-1.0-0.282","j","false","10","true","response","true",""
"","null","html-keyboard-response","566","1124604","0.0-1.0-1.282","null","","","","","","Correct!"
"","3449","canvas-keyboard-response","567","1128568","0.0-1.0-0.283","f","true","40","true","response","true",""
"","null","html-keyboard-response","568","1130073","0.0-1.0-1.283","null","","","","","","Correct!<br><br><b>Work faster!</b>"
"","3120","canvas-keyboard-response","569","1133696","0.0-1.0-0.284","j","false","40","true","response","true",""
"","null","html-keyboard-response","570","1135212","0.0-1.0-1.284","null","","","","","","Correct!<br><br><b>Work faster!</b>"
"","1944","canvas-keyboard-response","571","1137674","0.0-1.0-0.285","j","false","30","true","response","true",""
"","null","html-keyboard-response","572","1139195","0.0-1.0-1.285","null","","","","","","Correct!"
"","839","canvas-keyboard-response","573","1140542","0.0-1.0-0.286","f","true","10","true","response","true",""
"","null","html-keyboard-response","574","1142072","0.0-1.0-1.286","null","","","","","","Correct!"
"","1657","canvas-keyboard-response","575","1144245","0.0-1.0-0.287","f","true","40","true","response","true",""
"","null","html-keyboard-response","576","1145761","0.0-1.0-1.287","null","","","","","","Correct!"
"","1092","canvas-keyboard-response","577","1147368","0.0-1.0-0.288","f","true","40","false","response","true",""
"","null","html-keyboard-response","578","1148884","0.0-1.0-1.288","null","","","","","","Correct!"
"","1106","canvas-keyboard-response","579","1150506","0.0-1.0-0.289","f","true","20","false","response","true",""
"","null","html-keyboard-response","580","1152024","0.0-1.0-1.289","null","","","","","","Correct!"
"","2369","canvas-keyboard-response","581","1154897","0.0-1.0-0.290","j","false","40","false","response","true",""
"","null","html-keyboard-response","582","1156415","0.0-1.0-1.290","null","","","","","","Correct!<br><br><b>Work faster!</b>"
"","1609","canvas-keyboard-response","583","1158530","0.0-1.0-0.291","j","false","20","true","response","true",""
"","null","html-keyboard-response","584","1160054","0.0-1.0-1.291","null","","","","","","Correct!"
"","1348","canvas-keyboard-response","585","1161905","0.0-1.0-0.292","f","true","20","true","response","true",""
"","null","html-keyboard-response","586","1163417","0.0-1.0-1.292","null","","","","","","Correct!"
"","1012","canvas-keyboard-response","587","1164944","0.0-1.0-0.293","f","true","40","false","response","true",""
"","null","html-keyboard-response","588","1166446","0.0-1.0-1.293","null","","","","","","Correct!"
"","2275","canvas-keyboard-response","589","1169238","0.0-1.0-0.294","j","false","40","true","response","true",""
"","null","html-keyboard-response","590","1170751","0.0-1.0-1.294","null","","","","","","Correct!<br><br><b>Work faster!</b>"
"","1371","canvas-keyboard-response","591","1172632","0.0-1.0-0.295","f","true","40","true","response","true",""
"","null","html-keyboard-response","592","1174149","0.0-1.0-1.295","null","","","","","","Correct!"
"","1383","canvas-keyboard-response","593","1176034","0.0-1.0-0.296","j","false","10","false","response","true",""
"","null","html-keyboard-response","594","1177555","0.0-1.0-1.296","null","","","","","","Correct!"
"","1952","canvas-keyboard-response","595","1180014","0.0-1.0-0.297","j","false","40","false","response","true",""
"","null","html-keyboard-response","596","1181539","0.0-1.0-1.297","null","","","","","","Correct!"
"","1655","canvas-keyboard-response","597","1183697","0.0-1.0-0.298","j","false","20","true","response","true",""
"","null","html-keyboard-response","598","1185228","0.0-1.0-1.298","null","","","","","","Correct!"
"","2712","canvas-keyboard-response","599","1188456","0.0-1.0-0.299","f","true","20","true","response","true",""
"","null","html-keyboard-response","600","1189976","0.0-1.0-1.299","null","","","","","","Correct!<br><br><b>Work faster!</b>"
"","1812","canvas-keyboard-response","601","1192293","0.0-1.0-0.300","j","false","20","false","response","true",""
"","null","html-keyboard-response","602","1193820","0.0-1.0-1.300","null","","","","","","Correct!"
"","1252","canvas-keyboard-response","603","1195589","0.0-1.0-0.301","j","false","10","false","response","true",""
"","null","html-keyboard-response","604","1197103","0.0-1.0-1.301","null","","","","","","Correct!"
"","1098","canvas-keyboard-response","605","1198717","0.0-1.0-0.302","f","true","20","false","response","true",""
"","null","html-keyboard-response","606","1200243","0.0-1.0-1.302","null","","","","","","Correct!"
"","1326","canvas-keyboard-response","607","1202072","0.0-1.0-0.303","j","false","10","false","response","true",""
"","null","html-keyboard-response","608","1203590","0.0-1.0-1.303","null","","","","","","Correct!"
"","2556","canvas-keyboard-response","609","1206663","0.0-1.0-0.304","j","false","30","true","response","true",""
"","null","html-keyboard-response","610","1208166","0.0-1.0-1.304","null","","","","","","Correct!<br><br><b>Work faster!</b>"
"","1781","canvas-keyboard-response","611","1210464","0.0-1.0-0.305","j","false","20","true","response","true",""
"","null","html-keyboard-response","612","1211979","0.0-1.0-1.305","null","","","","","","Correct!"
"","2970","canvas-keyboard-response","613","1215465","0.0-1.0-0.306","j","false","40","true","response","true",""
"","null","html-keyboard-response","614","1216978","0.0-1.0-1.306","null","","","","","","Correct!<br><br><b>Work faster!</b>"
"","1252","canvas-keyboard-response","615","1218747","0.0-1.0-0.307","f","true","10","true","response","true",""
"","null","html-keyboard-response","616","1220274","0.0-1.0-1.307","null","","","","","","Correct!"
"","2692","canvas-keyboard-response","617","1223484","0.0-1.0-0.308","j","false","40","true","response","true",""
"","null","html-keyboard-response","618","1225010","0.0-1.0-1.308","null","","","","","","Correct!<br><br><b>Work faster!</b>"
"","1411","canvas-keyboard-response","619","1226943","0.0-1.0-0.309","j","false","10","true","response","true",""
"","null","html-keyboard-response","620","1228448","0.0-1.0-1.309","null","","","","","","Correct!"
"","1966","canvas-keyboard-response","621","1230937","0.0-1.0-0.310","j","false","30","false","response","true",""
"","null","html-keyboard-response","622","1232445","0.0-1.0-1.310","null","","","","","","Correct!"
"","1530","canvas-keyboard-response","623","1234478","0.0-1.0-0.311","f","true","40","true","response","true",""
"","null","html-keyboard-response","624","1235994","0.0-1.0-1.311","null","","","","","","Correct!"
"","843","canvas-keyboard-response","625","1237352","0.0-1.0-0.312","f","true","40","false","response","true",""
"","null","html-keyboard-response","626","1238883","0.0-1.0-1.312","null","","","","","","Correct!"
"","1456","canvas-keyboard-response","627","1240847","0.0-1.0-0.313","f","true","30","true","response","true",""
"","null","html-keyboard-response","628","1242368","0.0-1.0-1.313","null","","","","","","Correct!"
"","2325","canvas-keyboard-response","629","1245196","0.0-1.0-0.314","j","false","40","false","response","true",""
"","null","html-keyboard-response","630","1246700","0.0-1.0-1.314","null","","","","","","Correct!<br><br><b>Work faster!</b>"
"","1530","canvas-keyboard-response","631","1248745","0.0-1.0-0.315","j","false","30","false","response","true",""
"","null","html-keyboard-response","632","1250274","0.0-1.0-1.315","null","","","","","","Correct!"
"","1508","canvas-keyboard-response","633","1252299","0.0-1.0-0.316","f","true","20","true","response","true",""
"","null","html-keyboard-response","634","1253819","0.0-1.0-1.316","null","","","","","","Correct!"
"","1180","canvas-keyboard-response","635","1255502","0.0-1.0-0.317","j","false","20","false","response","true",""
"","null","html-keyboard-response","636","1257008","0.0-1.0-1.317","null","","","","","","Correct!"
"","717","canvas-keyboard-response","637","1258228","0.0-1.0-0.318","f","true","40","false","response","true",""
"","null","html-keyboard-response","638","1259743","0.0-1.0-1.318","null","","","","","","Correct!"
"","1851","canvas-keyboard-response","639","1262111","0.0-1.0-0.319","j","false","20","true","response","true",""
"","null","html-keyboard-response","640","1263618","0.0-1.0-1.319","null","","","","","","Correct!"
"","26186","html-button-response","641","1290330","0.0-2.0","0","","","","","","<p><b>Results</b></p>
          <p>In the table, you can see mean response times for different search conditions:</p>
          <table><tr><th>Search type</th><th>Set size</th><th>Mean RT present</th><th>Mean RT absent</th></tr><tr><td>Feature</td><td>10</td><td>940.85</td><td>1359.95</td></tr><tr><td>Feature</td><td>20</td><td>987.7</td><td>1726.85</td></tr><tr><td>Feature</td><td>30</td><td>831.9</td><td>1711.55</td></tr><tr><td>Feature</td><td>40</td><td>1102.8</td><td>2237.1</td></tr><tr><td>Conjunction</td><td>10</td><td>1103.1</td><td>1159.1</td></tr><tr><td>Conjunction</td><td>20</td><td>1545.35</td><td>1981.95</td></tr><tr><td>Conjunction</td><td>30</td><td>1712.2</td><td>2690.85</td></tr><tr><td>Conjunction</td><td>40</td><td>2293.4</td><td>2900.75</td></tr></table>
          <p>Press any key to <b>save</b> the data and complete the experiment. Thank you!</p>"
