"view_history","rt","trial_type","trial_index","time_elapsed","internal_node_id","response","present","setSize","conjuction","task","correct","stimulus"
"[{""page_index"":0,""viewing_time"":1595},{""page_index"":1,""viewing_time"":7696}]","9292","instructions","0","9292","0.0-0.0","","","","","","",""
"","1034","canvas-keyboard-response","1","10829","0.0-1.0-0.0","f","true","20","false","response","true",""
"","null","html-keyboard-response","2","12341","0.0-1.0-1.0","null","","","","","","Correct!"
"","942","canvas-keyboard-response","3","13796","0.0-1.0-0.1","j","false","10","false","response","true",""
"","null","html-keyboard-response","4","15317","0.0-1.0-1.1","null","","","","","","Correct!"
"","1031","canvas-keyboard-response","5","16857","0.0-1.0-0.2","f","true","10","false","response","true",""
"","null","html-keyboard-response","6","18373","0.0-1.0-1.2","null","","","","","","Correct!"
"","1060","canvas-keyboard-response","7","19947","0.0-1.0-0.3","j","false","30","true","response","true",""
"","null","html-keyboard-response","8","21460","0.0-1.0-1.3","null","","","","","","Correct!"
"","599","canvas-keyboard-response","9","22573","0.0-1.0-0.4","f","true","30","false","response","true",""
"","null","html-keyboard-response","10","24093","0.0-1.0-1.4","null","","","","","","Correct!"
"","854","canvas-keyboard-response","11","25459","0.0-1.0-0.5","j","false","30","true","response","true",""
"","null","html-keyboard-response","12","26973","0.0-1.0-1.5","null","","","","","","Correct!"
"","1236","canvas-keyboard-response","13","28722","0.0-1.0-0.6","j","true","40","true","response","false",""
"","null","html-keyboard-response","14","30237","0.0-1.0-1.6","null","","","","","","Wrong"
"","1256","canvas-keyboard-response","15","32007","0.0-1.0-0.7","j","false","40","true","response","true",""
"","null","html-keyboard-response","16","33521","0.0-1.0-1.7","null","","","","","","Correct!"
"","1069","canvas-keyboard-response","17","35098","0.0-1.0-0.8","j","false","20","false","response","true",""
"","null","html-keyboard-response","18","36612","0.0-1.0-1.8","null","","","","","","Correct!"
"","732","canvas-keyboard-response","19","37857","0.0-1.0-0.9","f","true","30","false","response","true",""
"","null","html-keyboard-response","20","39372","0.0-1.0-1.9","null","","","","","","Correct!"
"","866","canvas-keyboard-response","21","40751","0.0-1.0-0.10","j","false","20","true","response","true",""
"","null","html-keyboard-response","22","42265","0.0-1.0-1.10","null","","","","","","Correct!"
"","665","canvas-keyboard-response","23","43438","0.0-1.0-0.11","f","false","40","true","response","false",""
"","null","html-keyboard-response","24","44953","0.0-1.0-1.11","null","","","","","","Wrong"
"","860","canvas-keyboard-response","25","46317","0.0-1.0-0.12","j","false","10","true","response","true",""
"","null","html-keyboard-response","26","47836","0.0-1.0-1.12","null","","","","","","Correct!"
"","1660","canvas-keyboard-response","27","50008","0.0-1.0-0.13","j","false","40","true","response","true",""
"","null","html-keyboard-response","28","51519","0.0-1.0-1.13","null","","","","","","Correct!"
"","1727","canvas-keyboard-response","29","53756","0.0-1.0-0.14","j","false","40","false","response","true",""
"","null","html-keyboard-response","30","55276","0.0-1.0-1.14","null","","","","","","Correct!"
"","1329","canvas-keyboard-response","31","57118","0.0-1.0-0.15","j","false","40","true","response","true",""
"","null","html-keyboard-response","32","58632","0.0-1.0-1.15","null","","","","","","Correct!"
"","1050","canvas-keyboard-response","33","60192","0.0-1.0-0.16","j","false","30","false","response","true",""
"","null","html-keyboard-response","34","61707","0.0-1.0-1.16","null","","","","","","Correct!"
"","673","canvas-keyboard-response","35","62892","0.0-1.0-0.17","j","false","20","false","response","true",""
"","null","html-keyboard-response","36","64412","0.0-1.0-1.17","null","","","","","","Correct!"
"","656","canvas-keyboard-response","37","65578","0.0-1.0-0.18","f","true","40","true","response","true",""
"","null","html-keyboard-response","38","67091","0.0-1.0-1.18","null","","","","","","Correct!"
"","1590","canvas-keyboard-response","39","69193","0.0-1.0-0.19","f","true","40","true","response","true",""
"","null","html-keyboard-response","40","70707","0.0-1.0-1.19","null","","","","","","Correct!"
"","840","canvas-keyboard-response","41","72058","0.0-1.0-0.20","j","false","20","true","response","true",""
"","null","html-keyboard-response","42","73571","0.0-1.0-1.20","null","","","","","","Correct!"
"","763","canvas-keyboard-response","43","74847","0.0-1.0-0.21","j","false","10","true","response","true",""
"","null","html-keyboard-response","44","76363","0.0-1.0-1.21","null","","","","","","Correct!"
"","2070","canvas-keyboard-response","45","78941","0.0-1.0-0.22","j","false","40","false","response","true",""
"","null","html-keyboard-response","46","80458","0.0-1.0-1.22","null","","","","","","Correct!<br><br><b>Work faster!</b>"
"","866","canvas-keyboard-response","47","81838","0.0-1.0-0.23","f","true","20","false","response","true",""
"","null","html-keyboard-response","48","83355","0.0-1.0-1.23","null","","","","","","Correct!"
"","701","canvas-keyboard-response","49","84567","0.0-1.0-0.24","j","true","40","false","response","false",""
"","null","html-keyboard-response","50","86082","0.0-1.0-1.24","null","","","","","","Wrong"
"","910","canvas-keyboard-response","51","87507","0.0-1.0-0.25","j","false","30","true","response","true",""
"","null","html-keyboard-response","52","89026","0.0-1.0-1.25","null","","","","","","Correct!"
"","847","canvas-keyboard-response","53","90387","0.0-1.0-0.26","f","true","20","false","response","true",""
"","null","html-keyboard-response","54","91906","0.0-1.0-1.26","null","","","","","","Correct!"
"","1003","canvas-keyboard-response","55","93418","0.0-1.0-0.27","f","true","20","true","response","true",""
"","null","html-keyboard-response","56","94935","0.0-1.0-1.27","null","","","","","","Correct!"
"","883","canvas-keyboard-response","57","96327","0.0-1.0-0.28","j","false","20","true","response","true",""
"","null","html-keyboard-response","58","97842","0.0-1.0-1.28","null","","","","","","Correct!"
"","1033","canvas-keyboard-response","59","99387","0.0-1.0-0.29","j","false","20","true","response","true",""
"","null","html-keyboard-response","60","100906","0.0-1.0-1.29","null","","","","","","Correct!"
"","702","canvas-keyboard-response","61","102117","0.0-1.0-0.30","f","true","30","true","response","true",""
"","null","html-keyboard-response","62","103631","0.0-1.0-1.30","null","","","","","","Correct!"
"","1038","canvas-keyboard-response","63","105178","0.0-1.0-0.31","j","false","20","false","response","true",""
"","null","html-keyboard-response","64","106697","0.0-1.0-1.31","null","","","","","","Correct!"
"","512","canvas-keyboard-response","65","107724","0.0-1.0-0.32","f","true","10","false","response","true",""
"","null","html-keyboard-response","66","109242","0.0-1.0-1.32","null","","","","","","Correct!"
"","1031","canvas-keyboard-response","67","110786","0.0-1.0-0.33","j","true","30","true","response","false",""
"","null","html-keyboard-response","68","112306","0.0-1.0-1.33","null","","","","","","Wrong"
"","649","canvas-keyboard-response","69","113465","0.0-1.0-0.34","f","true","40","false","response","true",""
"","null","html-keyboard-response","70","114985","0.0-1.0-1.34","null","","","","","","Correct!"
"","781","canvas-keyboard-response","71","116278","0.0-1.0-0.35","j","false","10","true","response","true",""
"","null","html-keyboard-response","72","117793","0.0-1.0-1.35","null","","","","","","Correct!"
"","1119","canvas-keyboard-response","73","119427","0.0-1.0-0.36","j","false","20","false","response","true",""
"","null","html-keyboard-response","74","120945","0.0-1.0-1.36","null","","","","","","Correct!"
"","458","canvas-keyboard-response","75","121916","0.0-1.0-0.37","f","true","30","false","response","true",""
"","null","html-keyboard-response","76","123433","0.0-1.0-1.37","null","","","","","","Correct!"
"","1824","canvas-keyboard-response","77","125772","0.0-1.0-0.38","j","false","30","false","response","true",""
"","null","html-keyboard-response","78","127289","0.0-1.0-1.38","null","","","","","","Correct!"
"","686","canvas-keyboard-response","79","128488","0.0-1.0-0.39","f","true","30","false","response","true",""
"","null","html-keyboard-response","80","130001","0.0-1.0-1.39","null","","","","","","Correct!"
"","1308","canvas-keyboard-response","81","131816","0.0-1.0-0.40","j","false","40","false","response","true",""
"","null","html-keyboard-response","82","133337","0.0-1.0-1.40","null","","","","","","Correct!"
"","1132","canvas-keyboard-response","83","134982","0.0-1.0-0.41","f","true","20","true","response","true",""
"","null","html-keyboard-response","84","136496","0.0-1.0-1.41","null","","","","","","Correct!"
"","954","canvas-keyboard-response","85","137969","0.0-1.0-0.42","f","true","10","true","response","true",""
"","null","html-keyboard-response","86","139485","0.0-1.0-1.42","null","","","","","","Correct!"
"","823","canvas-keyboard-response","87","140818","0.0-1.0-0.43","j","false","20","false","response","true",""
"","null","html-keyboard-response","88","142337","0.0-1.0-1.43","null","","","","","","Correct!"
"","822","canvas-keyboard-response","89","143672","0.0-1.0-0.44","j","false","10","true","response","true",""
"","null","html-keyboard-response","90","145189","0.0-1.0-1.44","null","","","","","","Correct!"
"","2620","canvas-keyboard-response","91","148317","0.0-1.0-0.45","j","false","40","true","response","true",""
"","null","html-keyboard-response","92","149830","0.0-1.0-1.45","null","","","","","","Correct!<br><br><b>Work faster!</b>"
"","801","canvas-keyboard-response","93","151137","0.0-1.0-0.46","j","false","30","true","response","true",""
"","null","html-keyboard-response","94","152652","0.0-1.0-1.46","null","","","","","","Correct!"
"","1063","canvas-keyboard-response","95","154225","0.0-1.0-0.47","f","true","20","true","response","true",""
"","null","html-keyboard-response","96","155744","0.0-1.0-1.47","null","","","","","","Correct!"
"","1178","canvas-keyboard-response","97","157435","0.0-1.0-0.48","j","false","40","false","response","true",""
"","null","html-keyboard-response","98","158952","0.0-1.0-1.48","null","","","","","","Correct!"
"","553","canvas-keyboard-response","99","160017","0.0-1.0-0.49","f","true","20","false","response","true",""
"","null","html-keyboard-response","100","161536","0.0-1.0-1.49","null","","","","","","Correct!"
"","879","canvas-keyboard-response","101","162928","0.0-1.0-0.50","j","true","30","true","response","false",""
"","null","html-keyboard-response","102","164444","0.0-1.0-1.50","null","","","","","","Wrong"
"","1394","canvas-keyboard-response","103","166348","0.0-1.0-0.51","j","false","40","true","response","true",""
"","null","html-keyboard-response","104","167862","0.0-1.0-1.51","null","","","","","","Correct!"
"","1397","canvas-keyboard-response","105","169766","0.0-1.0-0.52","j","false","40","false","response","true",""
"","null","html-keyboard-response","106","171280","0.0-1.0-1.52","null","","","","","","Correct!"
"","526","canvas-keyboard-response","107","172316","0.0-1.0-0.53","f","true","10","false","response","true",""
"","null","html-keyboard-response","108","173831","0.0-1.0-1.53","null","","","","","","Correct!"
"","1244","canvas-keyboard-response","109","175588","0.0-1.0-0.54","f","true","40","true","response","true",""
"","null","html-keyboard-response","110","177103","0.0-1.0-1.54","null","","","","","","Correct!"
"","749","canvas-keyboard-response","111","178362","0.0-1.0-0.55","j","false","20","true","response","true",""
"","null","html-keyboard-response","112","179879","0.0-1.0-1.55","null","","","","","","Correct!"
"","1135","canvas-keyboard-response","113","181527","0.0-1.0-0.56","j","false","40","false","response","true",""
"","null","html-keyboard-response","114","183047","0.0-1.0-1.56","null","","","","","","Correct!"
"","516","canvas-keyboard-response","115","184077","0.0-1.0-0.57","f","true","20","false","response","true",""
"","null","html-keyboard-response","116","185591","0.0-1.0-1.57","null","","","","","","Correct!"
"","734","canvas-keyboard-response","117","186837","0.0-1.0-0.58","j","false","20","true","response","true",""
"","null","html-keyboard-response","118","188351","0.0-1.0-1.58","null","","","","","","Correct!"
"","703","canvas-keyboard-response","119","189567","0.0-1.0-0.59","j","false","10","true","response","true",""
"","null","html-keyboard-response","120","191087","0.0-1.0-1.59","null","","","","","","Correct!"
"","1355","canvas-keyboard-response","121","192955","0.0-1.0-0.60","f","true","20","true","response","true",""
"","null","html-keyboard-response","122","194469","0.0-1.0-1.60","null","","","","","","Correct!"
"","2002","canvas-keyboard-response","123","196977","0.0-1.0-0.61","j","false","40","false","response","true",""
"","null","html-keyboard-response","124","198490","0.0-1.0-1.61","null","","","","","","Correct!<br><br><b>Work faster!</b>"
"","781","canvas-keyboard-response","125","199780","0.0-1.0-0.62","j","false","30","false","response","true",""
"","null","html-keyboard-response","126","201292","0.0-1.0-1.62","null","","","","","","Correct!"
"","969","canvas-keyboard-response","127","202766","0.0-1.0-0.63","f","true","10","true","response","true",""
"","null","html-keyboard-response","128","204286","0.0-1.0-1.63","null","","","","","","Correct!"
"","1327","canvas-keyboard-response","129","206127","0.0-1.0-0.64","j","false","30","true","response","true",""
"","null","html-keyboard-response","130","207646","0.0-1.0-1.64","null","","","","","","Correct!"
"","728","canvas-keyboard-response","131","208888","0.0-1.0-0.65","j","false","40","false","response","true",""
"","null","html-keyboard-response","132","210403","0.0-1.0-1.65","null","","","","","","Correct!"
"","2177","canvas-keyboard-response","133","213087","0.0-1.0-0.66","f","true","30","true","response","true",""
"","null","html-keyboard-response","134","214602","0.0-1.0-1.66","null","","","","","","Correct!<br><br><b>Work faster!</b>"
"","1126","canvas-keyboard-response","135","216236","0.0-1.0-0.67","j","false","40","true","response","true",""
"","null","html-keyboard-response","136","217750","0.0-1.0-1.67","null","","","","","","Correct!"
"","797","canvas-keyboard-response","137","219058","0.0-1.0-0.68","j","true","20","true","response","false",""
"","null","html-keyboard-response","138","220574","0.0-1.0-1.68","null","","","","","","Wrong"
"","669","canvas-keyboard-response","139","221756","0.0-1.0-0.69","f","true","30","false","response","true",""
"","null","html-keyboard-response","140","223265","0.0-1.0-1.69","null","","","","","","Correct!"
"","591","canvas-keyboard-response","141","224367","0.0-1.0-0.70","j","false","10","true","response","true",""
"","null","html-keyboard-response","142","225881","0.0-1.0-1.70","null","","","","","","Correct!"
"","645","canvas-keyboard-response","143","227036","0.0-1.0-0.71","j","false","10","true","response","true",""
"","null","html-keyboard-response","144","228550","0.0-1.0-1.71","null","","","","","","Correct!"
"","615","canvas-keyboard-response","145","229677","0.0-1.0-0.72","f","true","10","false","response","true",""
"","null","html-keyboard-response","146","231197","0.0-1.0-1.72","null","","","","","","Correct!"
"","968","canvas-keyboard-response","147","232676","0.0-1.0-0.73","j","false","20","false","response","true",""
"","null","html-keyboard-response","148","234189","0.0-1.0-1.73","null","","","","","","Correct!"
"","527","canvas-keyboard-response","149","235226","0.0-1.0-0.74","f","true","20","false","response","true",""
"","null","html-keyboard-response","150","236741","0.0-1.0-1.74","null","","","","","","Correct!"
"","536","canvas-keyboard-response","151","237791","0.0-1.0-0.75","f","true","30","false","response","true",""
"","null","html-keyboard-response","152","239309","0.0-1.0-1.75","null","","","","","","Correct!"
"","475","canvas-keyboard-response","153","240297","0.0-1.0-0.76","f","true","10","false","response","true",""
"","null","html-keyboard-response","154","241809","0.0-1.0-1.76","null","","","","","","Correct!"
"","1173","canvas-keyboard-response","155","243492","0.0-1.0-0.77","f","false","40","true","response","false",""
"","null","html-keyboard-response","156","245005","0.0-1.0-1.77","null","","","","","","Wrong"
"","538","canvas-keyboard-response","157","246056","0.0-1.0-0.78","f","true","20","false","response","true",""
"","null","html-keyboard-response","158","247570","0.0-1.0-1.78","null","","","","","","Correct!"
"","1218","canvas-keyboard-response","159","249297","0.0-1.0-0.79","j","false","40","true","response","true",""
"","null","html-keyboard-response","160","250809","0.0-1.0-1.79","null","","","","","","Correct!"
"","620","canvas-keyboard-response","161","251937","0.0-1.0-0.80","f","true","20","false","response","true",""
"","null","html-keyboard-response","162","253451","0.0-1.0-1.80","null","","","","","","Correct!"
"","1669","canvas-keyboard-response","163","255626","0.0-1.0-0.81","j","false","30","true","response","true",""
"","null","html-keyboard-response","164","257141","0.0-1.0-1.81","null","","","","","","Correct!"
"","674","canvas-keyboard-response","165","258327","0.0-1.0-0.82","f","true","40","false","response","true",""
"","null","html-keyboard-response","166","259844","0.0-1.0-1.82","null","","","","","","Correct!"
"","819","canvas-keyboard-response","167","261177","0.0-1.0-0.83","j","false","20","true","response","true",""
"","null","html-keyboard-response","168","262691","0.0-1.0-1.83","null","","","","","","Correct!"
"","643","canvas-keyboard-response","169","263847","0.0-1.0-0.84","f","true","10","false","response","true",""
"","null","html-keyboard-response","170","265364","0.0-1.0-1.84","null","","","","","","Correct!"
"","879","canvas-keyboard-response","171","266756","0.0-1.0-0.85","f","true","10","true","response","true",""
"","null","html-keyboard-response","172","268276","0.0-1.0-1.85","null","","","","","","Correct!"
"","1133","canvas-keyboard-response","173","269922","0.0-1.0-0.86","j","false","30","false","response","true",""
"","null","html-keyboard-response","174","271432","0.0-1.0-1.86","null","","","","","","Correct!"
"","609","canvas-keyboard-response","175","272547","0.0-1.0-0.87","f","true","10","false","response","true",""
"","null","html-keyboard-response","176","274056","0.0-1.0-1.87","null","","","","","","Correct!"
"","998","canvas-keyboard-response","177","275562","0.0-1.0-0.88","j","false","40","true","response","true",""
"","null","html-keyboard-response","178","277072","0.0-1.0-1.88","null","","","","","","Correct!"
"","680","canvas-keyboard-response","179","278261","0.0-1.0-0.89","f","false","20","true","response","false",""
"","null","html-keyboard-response","180","279780","0.0-1.0-1.89","null","","","","","","Wrong"
"","592","canvas-keyboard-response","181","280886","0.0-1.0-0.90","f","true","10","false","response","true",""
"","null","html-keyboard-response","182","282400","0.0-1.0-1.90","null","","","","","","Correct!"
"","1338","canvas-keyboard-response","183","284246","0.0-1.0-0.91","f","true","10","true","response","true",""
"","null","html-keyboard-response","184","285764","0.0-1.0-1.91","null","","","","","","Correct!"
"","851","canvas-keyboard-response","185","287127","0.0-1.0-0.92","j","false","10","true","response","true",""
"","null","html-keyboard-response","186","288640","0.0-1.0-1.92","null","","","","","","Correct!"
"","858","canvas-keyboard-response","187","290008","0.0-1.0-0.93","j","true","30","true","response","false",""
"","null","html-keyboard-response","188","291523","0.0-1.0-1.93","null","","","","","","Wrong"
"","966","canvas-keyboard-response","189","293004","0.0-1.0-0.94","f","true","10","true","response","true",""
"","null","html-keyboard-response","190","294523","0.0-1.0-1.94","null","","","","","","Correct!"
"","939","canvas-keyboard-response","191","295976","0.0-1.0-0.95","j","false","30","true","response","true",""
"","null","html-keyboard-response","192","297490","0.0-1.0-1.95","null","","","","","","Correct!"
"","975","canvas-keyboard-response","193","298978","0.0-1.0-0.96","j","false","30","false","response","true",""
"","null","html-keyboard-response","194","300490","0.0-1.0-1.96","null","","","","","","Correct!"
"","880","canvas-keyboard-response","195","301885","0.0-1.0-0.97","f","true","20","true","response","true",""
"","null","html-keyboard-response","196","303403","0.0-1.0-1.97","null","","","","","","Correct!"
"","821","canvas-keyboard-response","197","304735","0.0-1.0-0.98","j","false","40","false","response","true",""
"","null","html-keyboard-response","198","306251","0.0-1.0-1.98","null","","","","","","Correct!"
"","889","canvas-keyboard-response","199","307653","0.0-1.0-0.99","j","false","30","false","response","true",""
"","null","html-keyboard-response","200","309168","0.0-1.0-1.99","null","","","","","","Correct!"
"","554","canvas-keyboard-response","201","310227","0.0-1.0-0.100","f","true","30","false","response","true",""
"","null","html-keyboard-response","202","311744","0.0-1.0-1.100","null","","","","","","Correct!"
"","674","canvas-keyboard-response","203","312926","0.0-1.0-0.101","f","true","10","true","response","true",""
"","null","html-keyboard-response","204","314442","0.0-1.0-1.101","null","","","","","","Correct!"
"","806","canvas-keyboard-response","205","315761","0.0-1.0-0.102","j","false","30","false","response","true",""
"","null","html-keyboard-response","206","317274","0.0-1.0-1.102","null","","","","","","Correct!"
"","449","canvas-keyboard-response","207","318236","0.0-1.0-0.103","f","true","30","false","response","true",""
"","null","html-keyboard-response","208","319754","0.0-1.0-1.103","null","","","","","","Correct!"
"","519","canvas-keyboard-response","209","320787","0.0-1.0-0.104","j","false","10","false","response","true",""
"","null","html-keyboard-response","210","322307","0.0-1.0-1.104","null","","","","","","Correct!"
"","814","canvas-keyboard-response","211","323635","0.0-1.0-0.105","j","false","40","false","response","true",""
"","null","html-keyboard-response","212","325154","0.0-1.0-1.105","null","","","","","","Correct!"
"","373","canvas-keyboard-response","213","326038","0.0-1.0-0.106","f","true","30","true","response","true",""
"","null","html-keyboard-response","214","327553","0.0-1.0-1.106","null","","","","","","Correct!"
"","1171","canvas-keyboard-response","215","329246","0.0-1.0-0.107","f","true","30","true","response","true",""
"","null","html-keyboard-response","216","330762","0.0-1.0-1.107","null","","","","","","Correct!"
"","551","canvas-keyboard-response","217","331827","0.0-1.0-0.108","f","true","30","false","response","true",""
"","null","html-keyboard-response","218","333346","0.0-1.0-1.108","null","","","","","","Correct!"
"","880","canvas-keyboard-response","219","334734","0.0-1.0-0.109","j","false","30","true","response","true",""
"","null","html-keyboard-response","220","336250","0.0-1.0-1.109","null","","","","","","Correct!"
"","1783","canvas-keyboard-response","221","338545","0.0-1.0-0.110","j","false","30","true","response","true",""
"","null","html-keyboard-response","222","340066","0.0-1.0-1.110","null","","","","","","Correct!"
"","999","canvas-keyboard-response","223","341576","0.0-1.0-0.111","f","true","10","true","response","true",""
"","null","html-keyboard-response","224","343090","0.0-1.0-1.111","null","","","","","","Correct!"
"","1072","canvas-keyboard-response","225","344673","0.0-1.0-0.112","f","true","40","true","response","true",""
"","null","html-keyboard-response","226","346193","0.0-1.0-1.112","null","","","","","","Correct!"
"","751","canvas-keyboard-response","227","347454","0.0-1.0-0.113","f","true","30","false","response","true",""
"","null","html-keyboard-response","228","348967","0.0-1.0-1.113","null","","","","","","Correct!"
"","1013","canvas-keyboard-response","229","350486","0.0-1.0-0.114","f","true","20","true","response","true",""
"","null","html-keyboard-response","230","352001","0.0-1.0-1.114","null","","","","","","Correct!"
"","643","canvas-keyboard-response","231","353157","0.0-1.0-0.115","j","false","20","false","response","true",""
"","null","html-keyboard-response","232","354673","0.0-1.0-1.115","null","","","","","","Correct!"
"","674","canvas-keyboard-response","233","355857","0.0-1.0-0.116","j","false","10","false","response","true",""
"","null","html-keyboard-response","234","357377","0.0-1.0-1.116","null","","","","","","Correct!"
"","696","canvas-keyboard-response","235","358586","0.0-1.0-0.117","j","false","30","false","response","true",""
"","null","html-keyboard-response","236","360105","0.0-1.0-1.117","null","","","","","","Correct!"
"","834","canvas-keyboard-response","237","361451","0.0-1.0-0.118","f","true","40","true","response","true",""
"","null","html-keyboard-response","238","362969","0.0-1.0-1.118","null","","","","","","Correct!"
"","711","canvas-keyboard-response","239","364193","0.0-1.0-0.119","j","false","40","false","response","true",""
"","null","html-keyboard-response","240","365708","0.0-1.0-1.119","null","","","","","","Correct!"
"","1309","canvas-keyboard-response","241","367528","0.0-1.0-0.120","j","false","20","true","response","true",""
"","null","html-keyboard-response","242","369041","0.0-1.0-1.120","null","","","","","","Correct!"
"","1244","canvas-keyboard-response","243","370795","0.0-1.0-0.121","j","true","40","true","response","false",""
"","null","html-keyboard-response","244","372312","0.0-1.0-1.121","null","","","","","","Wrong"
"","1482","canvas-keyboard-response","245","374307","0.0-1.0-0.122","f","true","10","true","response","true",""
"","null","html-keyboard-response","246","375820","0.0-1.0-1.122","null","","","","","","Correct!"
"","947","canvas-keyboard-response","247","377275","0.0-1.0-0.123","f","true","20","true","response","true",""
"","null","html-keyboard-response","248","378792","0.0-1.0-1.123","null","","","","","","Correct!"
"","732","canvas-keyboard-response","249","380037","0.0-1.0-0.124","j","false","30","false","response","true",""
"","null","html-keyboard-response","250","381552","0.0-1.0-1.124","null","","","","","","Correct!"
"","941","canvas-keyboard-response","251","383006","0.0-1.0-0.125","j","false","20","false","response","true",""
"","null","html-keyboard-response","252","384516","0.0-1.0-1.125","null","","","","","","Correct!"
"","846","canvas-keyboard-response","253","385871","0.0-1.0-0.126","f","true","40","true","response","true",""
"","null","html-keyboard-response","254","387390","0.0-1.0-1.126","null","","","","","","Correct!"
"","901","canvas-keyboard-response","255","388795","0.0-1.0-0.127","f","true","20","true","response","true",""
"","null","html-keyboard-response","256","390312","0.0-1.0-1.127","null","","","","","","Correct!"
"","582","canvas-keyboard-response","257","391407","0.0-1.0-0.128","f","true","40","false","response","true",""
"","null","html-keyboard-response","258","392920","0.0-1.0-1.128","null","","","","","","Correct!"
"","694","canvas-keyboard-response","259","394121","0.0-1.0-0.129","j","false","40","true","response","true",""
"","null","html-keyboard-response","260","395636","0.0-1.0-1.129","null","","","","","","Correct!"
"","540","canvas-keyboard-response","261","396685","0.0-1.0-0.130","f","true","10","false","response","true",""
"","null","html-keyboard-response","262","398200","0.0-1.0-1.130","null","","","","","","Correct!"
"","765","canvas-keyboard-response","263","399477","0.0-1.0-0.131","j","false","20","true","response","true",""
"","null","html-keyboard-response","264","400991","0.0-1.0-1.131","null","","","","","","Correct!"
"","554","canvas-keyboard-response","265","402058","0.0-1.0-0.132","j","false","10","true","response","true",""
"","null","html-keyboard-response","266","403575","0.0-1.0-1.132","null","","","","","","Correct!"
"","462","canvas-keyboard-response","267","404546","0.0-1.0-0.133","f","true","10","false","response","true",""
"","null","html-keyboard-response","268","406063","0.0-1.0-1.133","null","","","","","","Correct!"
"","699","canvas-keyboard-response","269","407276","0.0-1.0-0.134","j","false","10","true","response","true",""
"","null","html-keyboard-response","270","408791","0.0-1.0-1.134","null","","","","","","Correct!"
"","852","canvas-keyboard-response","271","410156","0.0-1.0-0.135","j","false","20","false","response","true",""
"","null","html-keyboard-response","272","411671","0.0-1.0-1.135","null","","","","","","Correct!"
"","582","canvas-keyboard-response","273","412766","0.0-1.0-0.136","j","false","20","false","response","true",""
"","null","html-keyboard-response","274","414287","0.0-1.0-1.136","null","","","","","","Correct!"
"","786","canvas-keyboard-response","275","415586","0.0-1.0-0.137","j","false","40","false","response","true",""
"","null","html-keyboard-response","276","417100","0.0-1.0-1.137","null","","","","","","Correct!"
"","831","canvas-keyboard-response","277","418435","0.0-1.0-0.138","j","true","30","true","response","false",""
"","null","html-keyboard-response","278","419951","0.0-1.0-1.138","null","","","","","","Wrong"
"","598","canvas-keyboard-response","279","421061","0.0-1.0-0.139","f","true","40","false","response","true",""
"","null","html-keyboard-response","280","422575","0.0-1.0-1.139","null","","","","","","Correct!"
"","657","canvas-keyboard-response","281","423744","0.0-1.0-0.140","j","false","30","false","response","true",""
"","null","html-keyboard-response","282","425263","0.0-1.0-1.140","null","","","","","","Correct!"
"","1181","canvas-keyboard-response","283","426956","0.0-1.0-0.141","f","true","30","true","response","true",""
"","null","html-keyboard-response","284","428468","0.0-1.0-1.141","null","","","","","","Correct!"
"","651","canvas-keyboard-response","285","429628","0.0-1.0-0.142","j","false","20","false","response","true",""
"","null","html-keyboard-response","286","431138","0.0-1.0-1.142","null","","","","","","Correct!"
"","469","canvas-keyboard-response","287","432116","0.0-1.0-0.143","f","true","40","false","response","true",""
"","null","html-keyboard-response","288","433631","0.0-1.0-1.143","null","","","","","","Correct!"
"","497","canvas-keyboard-response","289","434640","0.0-1.0-0.144","j","false","40","false","response","true",""
"","null","html-keyboard-response","290","436157","0.0-1.0-1.144","null","","","","","","Correct!"
"","467","canvas-keyboard-response","291","437126","0.0-1.0-0.145","f","true","20","true","response","true",""
"","null","html-keyboard-response","292","438643","0.0-1.0-1.145","null","","","","","","Correct!"
"","531","canvas-keyboard-response","293","439677","0.0-1.0-0.146","j","false","40","false","response","true",""
"","836","html-keyboard-response","294","441026","0.0-1.0-1.146","j","","","","","","Correct!"
"","1080","canvas-keyboard-response","295","442614","0.0-1.0-0.147","j","false","30","true","response","true",""
"","null","html-keyboard-response","296","444132","0.0-1.0-1.147","null","","","","","","Correct!"
"","498","canvas-keyboard-response","297","445137","0.0-1.0-0.148","f","true","10","false","response","true",""
"","null","html-keyboard-response","298","446650","0.0-1.0-1.148","null","","","","","","Correct!"
"","524","canvas-keyboard-response","299","447684","0.0-1.0-0.149","j","false","30","false","response","true",""
"","null","html-keyboard-response","300","449198","0.0-1.0-1.149","null","","","","","","Correct!"
"","409","canvas-keyboard-response","301","450116","0.0-1.0-0.150","f","false","10","true","response","false",""
"","null","html-keyboard-response","302","451629","0.0-1.0-1.150","null","","","","","","Wrong"
"","612","canvas-keyboard-response","303","452754","0.0-1.0-0.151","j","false","30","false","response","true",""
"","null","html-keyboard-response","304","454269","0.0-1.0-1.151","null","","","","","","Correct!"
"","525","canvas-keyboard-response","305","455307","0.0-1.0-0.152","f","true","40","false","response","true",""
"","null","html-keyboard-response","306","456821","0.0-1.0-1.152","null","","","","","","Correct!"
"","521","canvas-keyboard-response","307","457855","0.0-1.0-0.153","f","true","30","true","response","true",""
"","null","html-keyboard-response","308","459373","0.0-1.0-1.153","null","","","","","","Correct!"
"","547","canvas-keyboard-response","309","460434","0.0-1.0-0.154","j","false","20","false","response","true",""
"","null","html-keyboard-response","310","461950","0.0-1.0-1.154","null","","","","","","Correct!"
"","824","canvas-keyboard-response","311","463286","0.0-1.0-0.155","f","true","20","true","response","true",""
"","null","html-keyboard-response","312","464802","0.0-1.0-1.155","null","","","","","","Correct!"
"","497","canvas-keyboard-response","313","465806","0.0-1.0-0.156","f","true","30","false","response","true",""
"","null","html-keyboard-response","314","467325","0.0-1.0-1.156","null","","","","","","Correct!"
"","546","canvas-keyboard-response","315","468385","0.0-1.0-0.157","f","true","30","true","response","true",""
"","null","html-keyboard-response","316","469901","0.0-1.0-1.157","null","","","","","","Correct!"
"","491","canvas-keyboard-response","317","470905","0.0-1.0-0.158","f","true","40","false","response","true",""
"","null","html-keyboard-response","318","472421","0.0-1.0-1.158","null","","","","","","Correct!"
"","643","canvas-keyboard-response","319","473573","0.0-1.0-0.159","j","false","30","false","response","true",""
"","null","html-keyboard-response","320","475093","0.0-1.0-1.159","null","","","","","","Correct!"
"","584","canvas-keyboard-response","321","476187","0.0-1.0-0.160","f","false","40","true","response","false",""
"","null","html-keyboard-response","322","477700","0.0-1.0-1.160","null","","","","","","Wrong"
"","673","canvas-keyboard-response","323","478886","0.0-1.0-0.161","j","false","10","false","response","true",""
"","null","html-keyboard-response","324","480401","0.0-1.0-1.161","null","","","","","","Correct!"
"","601","canvas-keyboard-response","325","481510","0.0-1.0-0.162","j","false","20","false","response","true",""
"","null","html-keyboard-response","326","483029","0.0-1.0-1.162","null","","","","","","Correct!"
"","444","canvas-keyboard-response","327","483985","0.0-1.0-0.163","f","true","20","true","response","true",""
"","null","html-keyboard-response","328","485498","0.0-1.0-1.163","null","","","","","","Correct!"
"","633","canvas-keyboard-response","329","486635","0.0-1.0-0.164","f","true","30","false","response","true",""
"","null","html-keyboard-response","330","488148","0.0-1.0-1.164","null","","","","","","Correct!"
"","1297","canvas-keyboard-response","331","489957","0.0-1.0-0.165","j","false","30","true","response","true",""
"","null","html-keyboard-response","332","491472","0.0-1.0-1.165","null","","","","","","Correct!"
"","1124","canvas-keyboard-response","333","493105","0.0-1.0-0.166","j","false","20","true","response","true",""
"","null","html-keyboard-response","334","494617","0.0-1.0-1.166","null","","","","","","Correct!"
"","1086","canvas-keyboard-response","335","496210","0.0-1.0-0.167","f","true","10","true","response","true",""
"","null","html-keyboard-response","336","497724","0.0-1.0-1.167","null","","","","","","Correct!"
"","540","canvas-keyboard-response","337","498776","0.0-1.0-0.168","j","false","10","false","response","true",""
"","null","html-keyboard-response","338","500292","0.0-1.0-1.168","null","","","","","","Correct!"
"","647","canvas-keyboard-response","339","501449","0.0-1.0-0.169","f","true","10","false","response","true",""
"","null","html-keyboard-response","340","502964","0.0-1.0-1.169","null","","","","","","Correct!"
"","582","canvas-keyboard-response","341","504055","0.0-1.0-0.170","j","false","10","true","response","true",""
"","null","html-keyboard-response","342","505569","0.0-1.0-1.170","null","","","","","","Correct!"
"","651","canvas-keyboard-response","343","506725","0.0-1.0-0.171","j","false","40","false","response","true",""
"","null","html-keyboard-response","344","508244","0.0-1.0-1.171","null","","","","","","Correct!"
"","671","canvas-keyboard-response","345","509427","0.0-1.0-0.172","j","false","20","false","response","true",""
"","null","html-keyboard-response","346","510948","0.0-1.0-1.172","null","","","","","","Correct!"
"","1238","canvas-keyboard-response","347","512695","0.0-1.0-0.173","j","false","20","true","response","true",""
"","null","html-keyboard-response","348","514207","0.0-1.0-1.173","null","","","","","","Correct!"
"","1175","canvas-keyboard-response","349","515891","0.0-1.0-0.174","f","true","40","true","response","true",""
"","null","html-keyboard-response","350","517411","0.0-1.0-1.174","null","","","","","","Correct!"
"","540","canvas-keyboard-response","351","518466","0.0-1.0-0.175","f","true","20","false","response","true",""
"","null","html-keyboard-response","352","519979","0.0-1.0-1.175","null","","","","","","Correct!"
"","666","canvas-keyboard-response","353","521156","0.0-1.0-0.176","f","true","40","false","response","true",""
"","null","html-keyboard-response","354","522672","0.0-1.0-1.176","null","","","","","","Correct!"
"","585","canvas-keyboard-response","355","523765","0.0-1.0-0.177","f","false","10","false","response","false",""
"","null","html-keyboard-response","356","525296","0.0-1.0-1.177","null","","","","","","Wrong"
"","468","canvas-keyboard-response","357","526269","0.0-1.0-0.178","f","true","40","false","response","true",""
"","null","html-keyboard-response","358","527787","0.0-1.0-1.178","null","","","","","","Correct!"
"","505","canvas-keyboard-response","359","528805","0.0-1.0-0.179","j","false","10","false","response","true",""
"","null","html-keyboard-response","360","530315","0.0-1.0-1.179","null","","","","","","Correct!"
"","558","canvas-keyboard-response","361","531386","0.0-1.0-0.180","f","true","10","false","response","true",""
"","null","html-keyboard-response","362","532899","0.0-1.0-1.180","null","","","","","","Correct!"
"","432","canvas-keyboard-response","363","533845","0.0-1.0-0.181","j","false","30","false","response","true",""
"","null","html-keyboard-response","364","535361","0.0-1.0-1.181","null","","","","","","Correct!"
"","553","canvas-keyboard-response","365","536425","0.0-1.0-0.182","f","true","10","true","response","true",""
"","null","html-keyboard-response","366","537939","0.0-1.0-1.182","null","","","","","","Correct!"
"","495","canvas-keyboard-response","367","538945","0.0-1.0-0.183","j","false","10","false","response","true",""
"","null","html-keyboard-response","368","540458","0.0-1.0-1.183","null","","","","","","Correct!"
"","644","canvas-keyboard-response","369","541616","0.0-1.0-0.184","f","false","20","true","response","false",""
"","null","html-keyboard-response","370","543128","0.0-1.0-1.184","null","","","","","","Wrong"
"","1520","canvas-keyboard-response","371","545155","0.0-1.0-0.185","j","false","40","true","response","true",""
"","null","html-keyboard-response","372","546673","0.0-1.0-1.185","null","","","","","","Correct!"
"","577","canvas-keyboard-response","373","547765","0.0-1.0-0.186","j","false","20","false","response","true",""
"","null","html-keyboard-response","374","549282","0.0-1.0-1.186","null","","","","","","Correct!"
"","579","canvas-keyboard-response","375","550375","0.0-1.0-0.187","f","true","20","false","response","true",""
"","null","html-keyboard-response","376","551890","0.0-1.0-1.187","null","","","","","","Correct!"
"","677","canvas-keyboard-response","377","553076","0.0-1.0-0.188","j","false","10","true","response","true",""
"","null","html-keyboard-response","378","554594","0.0-1.0-1.188","null","","","","","","Correct!"
"","473","canvas-keyboard-response","379","555580","0.0-1.0-0.189","f","true","10","true","response","true",""
"","null","html-keyboard-response","380","557098","0.0-1.0-1.189","null","","","","","","Correct!"
"","489","canvas-keyboard-response","381","558100","0.0-1.0-0.190","j","false","10","false","response","true",""
"","null","html-keyboard-response","382","559615","0.0-1.0-1.190","null","","","","","","Correct!"
"","572","canvas-keyboard-response","383","560695","0.0-1.0-0.191","f","true","40","false","response","true",""
"","null","html-keyboard-response","384","562210","0.0-1.0-1.191","null","","","","","","Correct!"
"","825","canvas-keyboard-response","385","563546","0.0-1.0-0.192","f","true","10","false","response","true",""
"","null","html-keyboard-response","386","565066","0.0-1.0-1.192","null","","","","","","Correct!"
"","665","canvas-keyboard-response","387","566245","0.0-1.0-0.193","f","true","20","false","response","true",""
"","null","html-keyboard-response","388","567759","0.0-1.0-1.193","null","","","","","","Correct!"
"","616","canvas-keyboard-response","389","568900","0.0-1.0-0.194","f","true","10","true","response","true",""
"","null","html-keyboard-response","390","570417","0.0-1.0-1.194","null","","","","","","Correct!"
"","658","canvas-keyboard-response","391","571585","0.0-1.0-0.195","f","true","20","false","response","true",""
"","null","html-keyboard-response","392","573095","0.0-1.0-1.195","null","","","","","","Correct!"
"","653","canvas-keyboard-response","393","574253","0.0-1.0-0.196","j","false","30","false","response","true",""
"","null","html-keyboard-response","394","575769","0.0-1.0-1.196","null","","","","","","Correct!"
"","630","canvas-keyboard-response","395","576910","0.0-1.0-0.197","f","true","20","false","response","true",""
"","null","html-keyboard-response","396","578425","0.0-1.0-1.197","null","","","","","","Correct!"
"","627","canvas-keyboard-response","397","579566","0.0-1.0-0.198","j","false","10","true","response","true",""
"","null","html-keyboard-response","398","581082","0.0-1.0-1.198","null","","","","","","Correct!"
"","657","canvas-keyboard-response","399","582251","0.0-1.0-0.199","j","false","40","false","response","true",""
"","null","html-keyboard-response","400","583765","0.0-1.0-1.199","null","","","","","","Correct!"
"","542","canvas-keyboard-response","401","584816","0.0-1.0-0.200","f","false","30","true","response","false",""
"","null","html-keyboard-response","402","586329","0.0-1.0-1.200","null","","","","","","Wrong"
"","764","canvas-keyboard-response","403","587605","0.0-1.0-0.201","f","true","10","false","response","true",""
"","null","html-keyboard-response","404","589121","0.0-1.0-1.201","null","","","","","","Correct!"
"","1061","canvas-keyboard-response","405","590695","0.0-1.0-0.202","f","true","40","true","response","true",""
"","null","html-keyboard-response","406","592209","0.0-1.0-1.202","null","","","","","","Correct!"
"","1847","canvas-keyboard-response","407","594564","0.0-1.0-0.203","j","false","40","false","response","true",""
"","null","html-keyboard-response","408","596081","0.0-1.0-1.203","null","","","","","","Correct!"
"","1004","canvas-keyboard-response","409","597598","0.0-1.0-0.204","f","true","20","true","response","true",""
"","null","html-keyboard-response","410","599113","0.0-1.0-1.204","null","","","","","","Correct!"
"","1599","canvas-keyboard-response","411","601225","0.0-1.0-0.205","j","false","20","true","response","true",""
"","null","html-keyboard-response","412","602741","0.0-1.0-1.205","null","","","","","","Correct!"
"","646","canvas-keyboard-response","413","603895","0.0-1.0-0.206","f","true","20","true","response","true",""
"","null","html-keyboard-response","414","605408","0.0-1.0-1.206","null","","","","","","Correct!"
"","733","canvas-keyboard-response","415","606654","0.0-1.0-0.207","j","false","20","true","response","true",""
"","null","html-keyboard-response","416","608168","0.0-1.0-1.207","null","","","","","","Correct!"
"","1156","canvas-keyboard-response","417","609836","0.0-1.0-0.208","f","true","40","true","response","true",""
"","null","html-keyboard-response","418","611352","0.0-1.0-1.208","null","","","","","","Correct!"
"","588","canvas-keyboard-response","419","612454","0.0-1.0-0.209","f","true","40","false","response","true",""
"","null","html-keyboard-response","420","613965","0.0-1.0-1.209","null","","","","","","Correct!"
"","704","canvas-keyboard-response","421","615177","0.0-1.0-0.210","f","true","30","false","response","true",""
"","null","html-keyboard-response","422","616696","0.0-1.0-1.210","null","","","","","","Correct!"
"","651","canvas-keyboard-response","423","617860","0.0-1.0-0.211","j","false","10","true","response","true",""
"","null","html-keyboard-response","424","619376","0.0-1.0-1.211","null","","","","","","Correct!"
"","1049","canvas-keyboard-response","425","620937","0.0-1.0-0.212","f","true","20","false","response","true",""
"","null","html-keyboard-response","426","622452","0.0-1.0-1.212","null","","","","","","Correct!"
"","525","canvas-keyboard-response","427","623485","0.0-1.0-0.213","f","true","20","false","response","true",""
"","null","html-keyboard-response","428","625000","0.0-1.0-1.213","null","","","","","","Correct!"
"","792","canvas-keyboard-response","429","626305","0.0-1.0-0.214","j","false","20","true","response","true",""
"","null","html-keyboard-response","430","627824","0.0-1.0-1.214","null","","","","","","Correct!"
"","488","canvas-keyboard-response","431","628825","0.0-1.0-0.215","f","true","30","false","response","true",""
"","null","html-keyboard-response","432","630344","0.0-1.0-1.215","null","","","","","","Correct!"
"","490","canvas-keyboard-response","433","631346","0.0-1.0-0.216","f","true","30","false","response","true",""
"","null","html-keyboard-response","434","632863","0.0-1.0-1.216","null","","","","","","Correct!"
"","519","canvas-keyboard-response","435","633895","0.0-1.0-0.217","f","true","40","false","response","true",""
"","null","html-keyboard-response","436","635413","0.0-1.0-1.217","null","","","","","","Correct!"
"","558","canvas-keyboard-response","437","636476","0.0-1.0-0.218","j","true","20","false","response","false",""
"","null","html-keyboard-response","438","637992","0.0-1.0-1.218","null","","","","","","Wrong"
"","522","canvas-keyboard-response","439","639026","0.0-1.0-0.219","j","false","20","false","response","true",""
"","null","html-keyboard-response","440","640543","0.0-1.0-1.219","null","","","","","","Correct!"
"","579","canvas-keyboard-response","441","641635","0.0-1.0-0.220","f","true","20","false","response","true",""
"","null","html-keyboard-response","442","643151","0.0-1.0-1.220","null","","","","","","Correct!"
"","1241","canvas-keyboard-response","443","644905","0.0-1.0-0.221","j","false","40","true","response","true",""
"","null","html-keyboard-response","444","646421","0.0-1.0-1.221","null","","","","","","Correct!"
"","588","canvas-keyboard-response","445","647515","0.0-1.0-0.222","f","true","20","false","response","true",""
"","null","html-keyboard-response","446","649031","0.0-1.0-1.222","null","","","","","","Correct!"
"","642","canvas-keyboard-response","447","650186","0.0-1.0-0.223","j","false","10","true","response","true",""
"","null","html-keyboard-response","448","651700","0.0-1.0-1.223","null","","","","","","Correct!"
"","586","canvas-keyboard-response","449","652793","0.0-1.0-0.224","f","true","30","true","response","true",""
"","null","html-keyboard-response","450","654310","0.0-1.0-1.224","null","","","","","","Correct!"
"","674","canvas-keyboard-response","451","655494","0.0-1.0-0.225","j","false","20","false","response","true",""
"","null","html-keyboard-response","452","657015","0.0-1.0-1.225","null","","","","","","Correct!"
"","551","canvas-keyboard-response","453","658074","0.0-1.0-0.226","f","true","20","true","response","true",""
"","null","html-keyboard-response","454","659587","0.0-1.0-1.226","null","","","","","","Correct!"
"","678","canvas-keyboard-response","455","660774","0.0-1.0-0.227","j","true","10","true","response","false",""
"","null","html-keyboard-response","456","662294","0.0-1.0-1.227","null","","","","","","Wrong"
"","1013","canvas-keyboard-response","457","663821","0.0-1.0-0.228","j","false","40","true","response","true",""
"","null","html-keyboard-response","458","665334","0.0-1.0-1.228","null","","","","","","Correct!"
"","958","canvas-keyboard-response","459","666804","0.0-1.0-0.229","f","true","20","true","response","true",""
"","null","html-keyboard-response","460","668318","0.0-1.0-1.229","null","","","","","","Correct!"
"","604","canvas-keyboard-response","461","669430","0.0-1.0-0.230","j","false","40","false","response","true",""
"","null","html-keyboard-response","462","670950","0.0-1.0-1.230","null","","","","","","Correct!"
"","474","canvas-keyboard-response","463","671935","0.0-1.0-0.231","f","true","20","true","response","true",""
"","null","html-keyboard-response","464","673452","0.0-1.0-1.231","null","","","","","","Correct!"
"","530","canvas-keyboard-response","465","674486","0.0-1.0-0.232","f","true","40","false","response","true",""
"","null","html-keyboard-response","466","676006","0.0-1.0-1.232","null","","","","","","Correct!"
"","566","canvas-keyboard-response","467","677080","0.0-1.0-0.233","f","true","30","true","response","true",""
"","null","html-keyboard-response","468","678594","0.0-1.0-1.233","null","","","","","","Correct!"
"","511","canvas-keyboard-response","469","679628","0.0-1.0-0.234","f","true","40","true","response","true",""
"","null","html-keyboard-response","470","681141","0.0-1.0-1.234","null","","","","","","Correct!"
"","1143","canvas-keyboard-response","471","682794","0.0-1.0-0.235","f","true","20","true","response","true",""
"","null","html-keyboard-response","472","684309","0.0-1.0-1.235","null","","","","","","Correct!"
"","792","canvas-keyboard-response","473","685616","0.0-1.0-0.236","f","true","40","true","response","true",""
"","null","html-keyboard-response","474","687131","0.0-1.0-1.236","null","","","","","","Correct!"
"","797","canvas-keyboard-response","475","688435","0.0-1.0-0.237","j","true","30","true","response","false",""
"","null","html-keyboard-response","476","689950","0.0-1.0-1.237","null","","","","","","Wrong"
"","616","canvas-keyboard-response","477","691074","0.0-1.0-0.238","j","false","20","false","response","true",""
"","null","html-keyboard-response","478","692590","0.0-1.0-1.238","null","","","","","","Correct!"
"","1033","canvas-keyboard-response","479","694134","0.0-1.0-0.239","j","false","30","true","response","true",""
"","null","html-keyboard-response","480","695653","0.0-1.0-1.239","null","","","","","","Correct!"
"","549","canvas-keyboard-response","481","696715","0.0-1.0-0.240","f","true","10","true","response","true",""
"","null","html-keyboard-response","482","698229","0.0-1.0-1.240","null","","","","","","Correct!"
"","584","canvas-keyboard-response","483","699325","0.0-1.0-0.241","j","false","10","false","response","true",""
"","null","html-keyboard-response","484","700844","0.0-1.0-1.241","null","","","","","","Correct!"
"","725","canvas-keyboard-response","485","702084","0.0-1.0-0.242","j","false","20","true","response","true",""
"","null","html-keyboard-response","486","703596","0.0-1.0-1.242","null","","","","","","Correct!"
"","945","canvas-keyboard-response","487","705054","0.0-1.0-0.243","f","true","10","true","response","true",""
"","null","html-keyboard-response","488","706573","0.0-1.0-1.243","null","","","","","","Correct!"
"","729","canvas-keyboard-response","489","707815","0.0-1.0-0.244","j","false","30","false","response","true",""
"","null","html-keyboard-response","490","709349","0.0-1.0-1.244","null","","","","","","Correct!"
"","982","canvas-keyboard-response","491","710844","0.0-1.0-0.245","j","false","30","true","response","true",""
"","null","html-keyboard-response","492","712365","0.0-1.0-1.245","null","","","","","","Correct!"
"","606","canvas-keyboard-response","493","713484","0.0-1.0-0.246","j","false","40","false","response","true",""
"","null","html-keyboard-response","494","715004","0.0-1.0-1.246","null","","","","","","Correct!"
"","517","canvas-keyboard-response","495","716035","0.0-1.0-0.247","f","true","30","true","response","true",""
"","null","html-keyboard-response","496","717548","0.0-1.0-1.247","null","","","","","","Correct!"
"","554","canvas-keyboard-response","497","718616","0.0-1.0-0.248","f","true","20","false","response","true",""
"","null","html-keyboard-response","498","720132","0.0-1.0-1.248","null","","","","","","Correct!"
"","522","canvas-keyboard-response","499","721164","0.0-1.0-0.249","f","true","10","false","response","true",""
"","null","html-keyboard-response","500","722684","0.0-1.0-1.249","null","","","","","","Correct!"
"","504","canvas-keyboard-response","501","723697","0.0-1.0-0.250","f","true","40","false","response","true",""
"","null","html-keyboard-response","502","725212","0.0-1.0-1.250","null","","","","","","Correct!"
"","634","canvas-keyboard-response","503","726355","0.0-1.0-0.251","f","true","40","false","response","true",""
"","null","html-keyboard-response","504","727864","0.0-1.0-1.251","null","","","","","","Correct!"
"","563","canvas-keyboard-response","505","728936","0.0-1.0-0.252","f","true","40","true","response","true",""
"","null","html-keyboard-response","506","730450","0.0-1.0-1.252","null","","","","","","Correct!"
"","620","canvas-keyboard-response","507","731575","0.0-1.0-0.253","j","false","10","true","response","true",""
"","null","html-keyboard-response","508","733092","0.0-1.0-1.253","null","","","","","","Correct!"
"","640","canvas-keyboard-response","509","734245","0.0-1.0-0.254","j","false","30","false","response","true",""
"","null","html-keyboard-response","510","735762","0.0-1.0-1.254","null","","","","","","Correct!"
"","466","canvas-keyboard-response","511","736734","0.0-1.0-0.255","f","true","30","true","response","true",""
"","null","html-keyboard-response","512","738247","0.0-1.0-1.255","null","","","","","","Correct!"
"","708","canvas-keyboard-response","513","739464","0.0-1.0-0.256","f","true","30","true","response","true",""
"","null","html-keyboard-response","514","740980","0.0-1.0-1.256","null","","","","","","Correct!"
"","643","canvas-keyboard-response","515","742134","0.0-1.0-0.257","j","false","30","false","response","true",""
"","null","html-keyboard-response","516","743654","0.0-1.0-1.257","null","","","","","","Correct!"
"","730","canvas-keyboard-response","517","744895","0.0-1.0-0.258","j","false","30","true","response","true",""
"","null","html-keyboard-response","518","746411","0.0-1.0-1.258","null","","","","","","Correct!"
"","611","canvas-keyboard-response","519","747534","0.0-1.0-0.259","f","true","10","true","response","true",""
"","null","html-keyboard-response","520","749051","0.0-1.0-1.259","null","","","","","","Correct!"
"","494","canvas-keyboard-response","521","750057","0.0-1.0-0.260","f","true","30","false","response","true",""
"","null","html-keyboard-response","522","751571","0.0-1.0-1.260","null","","","","","","Correct!"
"","506","canvas-keyboard-response","523","752590","0.0-1.0-0.261","j","false","20","false","response","true",""
"","null","html-keyboard-response","524","754099","0.0-1.0-1.261","null","","","","","","Correct!"
"","426","canvas-keyboard-response","525","755035","0.0-1.0-0.262","f","true","10","false","response","true",""
"","null","html-keyboard-response","526","756555","0.0-1.0-1.262","null","","","","","","Correct!"
"","1025","canvas-keyboard-response","527","758094","0.0-1.0-0.263","j","false","30","true","response","true",""
"","null","html-keyboard-response","528","759608","0.0-1.0-1.263","null","","","","","","Correct!"
"","558","canvas-keyboard-response","529","760675","0.0-1.0-0.264","j","false","10","false","response","true",""
"","null","html-keyboard-response","530","762191","0.0-1.0-1.264","null","","","","","","Correct!"
"","588","canvas-keyboard-response","531","763284","0.0-1.0-0.265","j","false","10","true","response","true",""
"","null","html-keyboard-response","532","764800","0.0-1.0-1.265","null","","","","","","Correct!"
"","617","canvas-keyboard-response","533","765924","0.0-1.0-0.266","j","true","10","true","response","false",""
"","null","html-keyboard-response","534","767440","0.0-1.0-1.266","null","","","","","","Wrong"
"","557","canvas-keyboard-response","535","768505","0.0-1.0-0.267","j","false","10","false","response","true",""
"","null","html-keyboard-response","536","770019","0.0-1.0-1.267","null","","","","","","Correct!"
"","603","canvas-keyboard-response","537","771131","0.0-1.0-0.268","j","false","10","false","response","true",""
"","null","html-keyboard-response","538","772649","0.0-1.0-1.268","null","","","","","","Correct!"
"","623","canvas-keyboard-response","539","773784","0.0-1.0-0.269","j","false","20","false","response","true",""
"","null","html-keyboard-response","540","775298","0.0-1.0-1.269","null","","","","","","Correct!"
"","614","canvas-keyboard-response","541","776425","0.0-1.0-0.270","f","true","10","false","response","true",""
"","null","html-keyboard-response","542","777939","0.0-1.0-1.270","null","","","","","","Correct!"
"","498","canvas-keyboard-response","543","778944","0.0-1.0-0.271","f","true","10","true","response","true",""
"","null","html-keyboard-response","544","780456","0.0-1.0-1.271","null","","","","","","Correct!"
"","502","canvas-keyboard-response","545","781465","0.0-1.0-0.272","j","false","30","false","response","true",""
"","null","html-keyboard-response","546","782978","0.0-1.0-1.272","null","","","","","","Correct!"
"","452","canvas-keyboard-response","547","783940","0.0-1.0-0.273","f","true","30","false","response","true",""
"","null","html-keyboard-response","548","785458","0.0-1.0-1.273","null","","","","","","Correct!"
"","660","canvas-keyboard-response","549","786630","0.0-1.0-0.274","f","false","40","true","response","false",""
"","null","html-keyboard-response","550","788146","0.0-1.0-1.274","null","","","","","","Wrong"
"","521","canvas-keyboard-response","551","789190","0.0-1.0-0.275","f","true","30","false","response","true",""
"","null","html-keyboard-response","552","790706","0.0-1.0-1.275","null","","","","","","Correct!"
"","1827","canvas-keyboard-response","553","793046","0.0-1.0-0.276","j","false","40","true","response","true",""
"","null","html-keyboard-response","554","794562","0.0-1.0-1.276","null","","","","","","Correct!"
"","1260","canvas-keyboard-response","555","796330","0.0-1.0-0.277","j","false","20","true","response","true",""
"","null","html-keyboard-response","556","797850","0.0-1.0-1.277","null","","","","","","Correct!"
"","501","canvas-keyboard-response","557","798863","0.0-1.0-0.278","j","false","10","false","response","true",""
"","null","html-keyboard-response","558","800378","0.0-1.0-1.278","null","","","","","","Correct!"
"","1396","canvas-keyboard-response","559","802284","0.0-1.0-0.279","f","true","30","true","response","true",""
"","null","html-keyboard-response","560","803801","0.0-1.0-1.279","null","","","","","","Correct!"
"","581","canvas-keyboard-response","561","804895","0.0-1.0-0.280","f","true","40","false","response","true",""
"","null","html-keyboard-response","562","806406","0.0-1.0-1.280","null","","","","","","Correct!"
"","534","canvas-keyboard-response","563","807448","0.0-1.0-0.281","j","false","10","false","response","true",""
"","null","html-keyboard-response","564","808959","0.0-1.0-1.281","null","","","","","","Correct!"
"","620","canvas-keyboard-response","565","810084","0.0-1.0-0.282","j","false","10","true","response","true",""
"","null","html-keyboard-response","566","811598","0.0-1.0-1.282","null","","","","","","Correct!"
"","498","canvas-keyboard-response","567","812604","0.0-1.0-0.283","j","false","10","false","response","true",""
"","null","html-keyboard-response","568","814121","0.0-1.0-1.283","null","","","","","","Correct!"
"","736","canvas-keyboard-response","569","815365","0.0-1.0-0.284","f","false","20","true","response","false",""
"","null","html-keyboard-response","570","816881","0.0-1.0-1.284","null","","","","","","Wrong"
"","790","canvas-keyboard-response","571","818184","0.0-1.0-0.285","f","true","20","true","response","true",""
"","null","html-keyboard-response","572","819697","0.0-1.0-1.285","null","","","","","","Correct!"
"","1335","canvas-keyboard-response","573","821544","0.0-1.0-0.286","j","false","30","true","response","true",""
"","null","html-keyboard-response","574","823065","0.0-1.0-1.286","null","","","","","","Correct!"
"","1027","canvas-keyboard-response","575","824604","0.0-1.0-0.287","f","true","30","true","response","true",""
"","null","html-keyboard-response","576","826121","0.0-1.0-1.287","null","","","","","","Correct!"
"","928","canvas-keyboard-response","577","827561","0.0-1.0-0.288","j","false","10","false","response","true",""
"","null","html-keyboard-response","578","829080","0.0-1.0-1.288","null","","","","","","Correct!"
"","746","canvas-keyboard-response","579","830335","0.0-1.0-0.289","f","true","30","true","response","true",""
"","null","html-keyboard-response","580","831848","0.0-1.0-1.289","null","","","","","","Correct!"
"","612","canvas-keyboard-response","581","832974","0.0-1.0-0.290","f","true","30","false","response","true",""
"","null","html-keyboard-response","582","834487","0.0-1.0-1.290","null","","","","","","Correct!"
"","563","canvas-keyboard-response","583","835553","0.0-1.0-0.291","j","false","10","false","response","true",""
"","null","html-keyboard-response","584","837072","0.0-1.0-1.291","null","","","","","","Correct!"
"","670","canvas-keyboard-response","585","838255","0.0-1.0-0.292","j","true","20","true","response","false",""
"","null","html-keyboard-response","586","839768","0.0-1.0-1.292","null","","","","","","Wrong"
"","571","canvas-keyboard-response","587","840863","0.0-1.0-0.293","j","false","10","false","response","true",""
"","null","html-keyboard-response","588","842384","0.0-1.0-1.293","null","","","","","","Correct!"
"","547","canvas-keyboard-response","589","843444","0.0-1.0-0.294","f","false","40","true","response","false",""
"","null","html-keyboard-response","590","844960","0.0-1.0-1.294","null","","","","","","Wrong"
"","584","canvas-keyboard-response","591","846054","0.0-1.0-0.295","j","false","10","true","response","true",""
"","null","html-keyboard-response","592","847568","0.0-1.0-1.295","null","","","","","","Correct!"
"","1065","canvas-keyboard-response","593","849146","0.0-1.0-0.296","f","true","40","true","response","true",""
"","null","html-keyboard-response","594","850663","0.0-1.0-1.296","null","","","","","","Correct!"
"","1116","canvas-keyboard-response","595","852294","0.0-1.0-0.297","f","true","40","false","response","true",""
"","null","html-keyboard-response","596","853808","0.0-1.0-1.297","null","","","","","","Correct!"
"","764","canvas-keyboard-response","597","855084","0.0-1.0-0.298","f","true","40","true","response","true",""
"","null","html-keyboard-response","598","856600","0.0-1.0-1.298","null","","","","","","Correct!"
"","1033","canvas-keyboard-response","599","858145","0.0-1.0-0.299","f","true","10","true","response","true",""
"","null","html-keyboard-response","600","859662","0.0-1.0-1.299","null","","","","","","Correct!"
"","1841","canvas-keyboard-response","601","862017","0.0-1.0-0.300","j","false","30","true","response","true",""
"","null","html-keyboard-response","602","863536","0.0-1.0-1.300","null","","","","","","Correct!"
"","546","canvas-keyboard-response","603","864594","0.0-1.0-0.301","j","false","10","false","response","true",""
"","null","html-keyboard-response","604","866111","0.0-1.0-1.301","null","","","","","","Correct!"
"","1452","canvas-keyboard-response","605","868074","0.0-1.0-0.302","j","false","40","true","response","true",""
"","null","html-keyboard-response","606","869588","0.0-1.0-1.302","null","","","","","","Correct!"
"","497","canvas-keyboard-response","607","870594","0.0-1.0-0.303","j","false","30","false","response","true",""
"","null","html-keyboard-response","608","872108","0.0-1.0-1.303","null","","","","","","Correct!"
"","740","canvas-keyboard-response","609","873355","0.0-1.0-0.304","f","true","40","true","response","true",""
"","null","html-keyboard-response","610","874871","0.0-1.0-1.304","null","","","","","","Correct!"
"","640","canvas-keyboard-response","611","876024","0.0-1.0-0.305","f","true","20","false","response","true",""
"","null","html-keyboard-response","612","877542","0.0-1.0-1.305","null","","","","","","Correct!"
"","712","canvas-keyboard-response","613","878769","0.0-1.0-0.306","f","true","30","false","response","true",""
"","null","html-keyboard-response","614","880287","0.0-1.0-1.306","null","","","","","","Correct!"
"","504","canvas-keyboard-response","615","881303","0.0-1.0-0.307","j","true","10","false","response","false",""
"","null","html-keyboard-response","616","882815","0.0-1.0-1.307","null","","","","","","Wrong"
"","531","canvas-keyboard-response","617","883855","0.0-1.0-0.308","j","false","40","false","response","true",""
"","null","html-keyboard-response","618","885374","0.0-1.0-1.308","null","","","","","","Correct!"
"","730","canvas-keyboard-response","619","886613","0.0-1.0-0.309","f","true","40","true","response","true",""
"","null","html-keyboard-response","620","888126","0.0-1.0-1.309","null","","","","","","Correct!"
"","526","canvas-keyboard-response","621","889165","0.0-1.0-0.310","f","true","10","false","response","true",""
"","null","html-keyboard-response","622","890678","0.0-1.0-1.310","null","","","","","","Correct!"
"","556","canvas-keyboard-response","623","891743","0.0-1.0-0.311","f","true","40","false","response","true",""
"","null","html-keyboard-response","624","893262","0.0-1.0-1.311","null","","","","","","Correct!"
"","504","canvas-keyboard-response","625","894280","0.0-1.0-0.312","f","true","40","true","response","true",""
"","null","html-keyboard-response","626","895787","0.0-1.0-1.312","null","","","","","","Correct!"
"","789","canvas-keyboard-response","627","897084","0.0-1.0-0.313","f","true","40","false","response","true",""
"","null","html-keyboard-response","628","898598","0.0-1.0-1.313","null","","","","","","Correct!"
"","717","canvas-keyboard-response","629","899829","0.0-1.0-0.314","f","true","10","true","response","true",""
"","null","html-keyboard-response","630","901342","0.0-1.0-1.314","null","","","","","","Correct!"
"","691","canvas-keyboard-response","631","902544","0.0-1.0-0.315","f","false","30","true","response","false",""
"","null","html-keyboard-response","632","904058","0.0-1.0-1.315","null","","","","","","Wrong"
"","964","canvas-keyboard-response","633","905531","0.0-1.0-0.316","j","false","40","true","response","true",""
"","null","html-keyboard-response","634","907046","0.0-1.0-1.316","null","","","","","","Correct!"
"","597","canvas-keyboard-response","635","908155","0.0-1.0-0.317","f","false","30","true","response","false",""
"","null","html-keyboard-response","636","909670","0.0-1.0-1.317","null","","","","","","Wrong"
"","732","canvas-keyboard-response","637","910915","0.0-1.0-0.318","f","true","40","true","response","true",""
"","null","html-keyboard-response","638","912430","0.0-1.0-1.318","null","","","","","","Correct!"
"","1182","canvas-keyboard-response","639","914124","0.0-1.0-0.319","j","false","20","true","response","true",""
"","null","html-keyboard-response","640","915637","0.0-1.0-1.319","null","","","","","","Correct!"
"","38176","html-button-response","641","954335","0.0-2.0","0","","","","","","<p><b>Results</b></p>
          <p>In the table, you can see mean response times for different search conditions:</p>
          <table><tr><th>Search type</th><th>Set size</th><th>Mean RT present</th><th>Mean RT absent</th></tr><tr><td>Feature</td><td>10</td><td>594.45</td><td>593.25</td></tr><tr><td>Feature</td><td>20</td><td>653.3</td><td>734.8</td></tr><tr><td>Feature</td><td>30</td><td>579.4</td><td>770.9</td></tr><tr><td>Feature</td><td>40</td><td>610.6</td><td>1030.05</td></tr><tr><td>Conjunction</td><td>10</td><td>831.85</td><td>663.45</td></tr><tr><td>Conjunction</td><td>20</td><td>853.1</td><td>935.55</td></tr><tr><td>Conjunction</td><td>30</td><td>853.95</td><td>1068.8</td></tr><tr><td>Conjunction</td><td>40</td><td>925.75</td><td>1197.05</td></tr></table>
          <p>Press any key to <b>save</b> the data and complete the experiment. Thank you!</p>"
